onset	duration	sample	trial_type	response_time	stim_file	item_name	category	serialpos	recalled	list	test	answer	stimulation	stim_list	stim_duration	anode_label	cathode_label	amplitude	pulse_freq	n_pulses	pulse_width	experiment	session	subject
0.0	0.0	7033	INSTRUCT_START	n/a	n/a	n/a	n/a	-999	0	-999	[0, 0, 0]	n/a	0	0	0	n/a	n/a	0.0	0	0	0	catFR3	1	R1243T
0.0	10.996	7033	INSTRUCT_END	n/a	n/a	n/a	n/a	-999	0	-999	[0, 0, 0]	n/a	0	0	0	n/a	n/a	0.0	0	0	0	catFR3	1	R1243T
10.996	0.0	18029	SESS_START	n/a	n/a	n/a	n/a	-999	0	-999	[0, 0, 0]	n/a	0	0	0	n/a	n/a	0.0	0	0	0	catFR3	1	R1243T
10.996	10.5	18029	MIC_TEST	n/a	n/a	n/a	n/a	-999	0	-999	[0, 0, 0]	n/a	0	0	0	n/a	n/a	0.0	0	0	0	catFR3	1	R1243T
21.496	26.946	28528	PRACTICE_TRIAL	n/a	n/a	n/a	n/a	-999	0	-1	[0, 0, 0]	n/a	0	0	0	n/a	n/a	0.0	0	0	0	catFR3	1	R1243T
48.442	10.0	55472	COUNTDOWN_START	n/a	n/a	n/a	n/a	-999	0	-1	[0, 0, 0]	n/a	0	0	0	n/a	n/a	0.0	0	0	0	catFR3	1	R1243T
58.87	0.007	65900	COUNTDOWN_END	n/a	n/a	n/a	n/a	-999	0	-1	[0, 0, 0]	n/a	0	0	0	n/a	n/a	0.0	0	0	0	catFR3	1	R1243T
58.877	1.6	65907	PRACTICE_ORIENT	n/a	n/a	n/a	n/a	-999	0	-1	[0, 0, 0]	n/a	0	0	0	n/a	n/a	0.0	0	0	0	catFR3	1	R1243T
60.493	2.235	67523	PRACTICE_ORIENT_OFF	n/a	n/a	n/a	n/a	-999	0	-1	[0, 0, 0]	n/a	0	0	0	n/a	n/a	0.0	0	0	0	catFR3	1	R1243T
62.728	1.6	69758	PRACTICE_WORD	n/a	n/a	WATCH	n/a	1	0	-1	[0, 0, 0]	n/a	0	0	0	n/a	n/a	0.0	0	0	0	catFR3	1	R1243T
64.345	1.017	71374	PRACTICE_WORD_OFF	n/a	n/a	WATCH	n/a	-999	0	-1	[0, 0, 0]	n/a	0	0	0	n/a	n/a	0.0	0	0	0	catFR3	1	R1243T
65.362	1.6	72391	PRACTICE_WORD	n/a	n/a	COTTON	n/a	2	0	-1	[0, 0, 0]	n/a	0	0	0	n/a	n/a	0.0	0	0	0	catFR3	1	R1243T
66.979	0.917	74008	PRACTICE_WORD_OFF	n/a	n/a	COTTON	n/a	-999	0	-1	[0, 0, 0]	n/a	0	0	0	n/a	n/a	0.0	0	0	0	catFR3	1	R1243T
67.896	1.6	74925	PRACTICE_WORD	n/a	n/a	TONGUE	n/a	3	0	-1	[0, 0, 0]	n/a	0	0	0	n/a	n/a	0.0	0	0	0	catFR3	1	R1243T
69.512	0.951	76541	PRACTICE_WORD_OFF	n/a	n/a	TONGUE	n/a	-999	0	-1	[0, 0, 0]	n/a	0	0	0	n/a	n/a	0.0	0	0	0	catFR3	1	R1243T
70.463	1.6	77492	PRACTICE_WORD	n/a	n/a	CHEST	n/a	4	0	-1	[0, 0, 0]	n/a	0	0	0	n/a	n/a	0.0	0	0	0	catFR3	1	R1243T
72.08	0.766	79109	PRACTICE_WORD_OFF	n/a	n/a	CHEST	n/a	-999	0	-1	[0, 0, 0]	n/a	0	0	0	n/a	n/a	0.0	0	0	0	catFR3	1	R1243T
72.846	1.6	79875	PRACTICE_WORD	n/a	n/a	FLOOD	n/a	5	0	-1	[0, 0, 0]	n/a	0	0	0	n/a	n/a	0.0	0	0	0	catFR3	1	R1243T
74.463	0.851	81492	PRACTICE_WORD_OFF	n/a	n/a	FLOOD	n/a	-999	0	-1	[0, 0, 0]	n/a	0	0	0	n/a	n/a	0.0	0	0	0	catFR3	1	R1243T
75.314	1.6	82343	PRACTICE_WORD	n/a	n/a	CAMEL	n/a	6	0	-1	[0, 0, 0]	n/a	0	0	0	n/a	n/a	0.0	0	0	0	catFR3	1	R1243T
76.931	0.833	83960	PRACTICE_WORD_OFF	n/a	n/a	CAMEL	n/a	-999	0	-1	[0, 0, 0]	n/a	0	0	0	n/a	n/a	0.0	0	0	0	catFR3	1	R1243T
77.764	1.6	84793	PRACTICE_WORD	n/a	n/a	RING	n/a	7	0	-1	[0, 0, 0]	n/a	0	0	0	n/a	n/a	0.0	0	0	0	catFR3	1	R1243T
79.381	0.833	86410	PRACTICE_WORD_OFF	n/a	n/a	RING	n/a	-999	0	-1	[0, 0, 0]	n/a	0	0	0	n/a	n/a	0.0	0	0	0	catFR3	1	R1243T
80.214	1.6	87243	PRACTICE_WORD	n/a	n/a	IRON	n/a	8	0	-1	[0, 0, 0]	n/a	0	0	0	n/a	n/a	0.0	0	0	0	catFR3	1	R1243T
81.831	0.867	88859	PRACTICE_WORD_OFF	n/a	n/a	IRON	n/a	-999	0	-1	[0, 0, 0]	n/a	0	0	0	n/a	n/a	0.0	0	0	0	catFR3	1	R1243T
82.698	1.6	89726	PRACTICE_WORD	n/a	n/a	WAGON	n/a	9	0	-1	[0, 0, 0]	n/a	0	0	0	n/a	n/a	0.0	0	0	0	catFR3	1	R1243T
84.315	0.884	91343	PRACTICE_WORD_OFF	n/a	n/a	WAGON	n/a	-999	0	-1	[0, 0, 0]	n/a	0	0	0	n/a	n/a	0.0	0	0	0	catFR3	1	R1243T
85.199	1.6	92227	PRACTICE_WORD	n/a	n/a	RHINO	n/a	10	0	-1	[0, 0, 0]	n/a	0	0	0	n/a	n/a	0.0	0	0	0	catFR3	1	R1243T
86.816	0.933	93844	PRACTICE_WORD_OFF	n/a	n/a	RHINO	n/a	-999	0	-1	[0, 0, 0]	n/a	0	0	0	n/a	n/a	0.0	0	0	0	catFR3	1	R1243T
87.749	1.6	94777	PRACTICE_WORD	n/a	n/a	BEAM	n/a	11	0	-1	[0, 0, 0]	n/a	0	0	0	n/a	n/a	0.0	0	0	0	catFR3	1	R1243T
89.366	0.934	96394	PRACTICE_WORD_OFF	n/a	n/a	BEAM	n/a	-999	0	-1	[0, 0, 0]	n/a	0	0	0	n/a	n/a	0.0	0	0	0	catFR3	1	R1243T
90.3	1.6	97328	PRACTICE_WORD	n/a	n/a	ATTIC	n/a	12	0	-1	[0, 0, 0]	n/a	0	0	0	n/a	n/a	0.0	0	0	0	catFR3	1	R1243T
91.917	0.0	98945	ENCODING_END	n/a	n/a	n/a	n/a	-999	0	-1	[0, 0, 0]	n/a	0	0	0	n/a	n/a	0.0	0	0	0	catFR3	1	R1243T
91.917	0.0	98945	PRACTICE_WORD_OFF	n/a	n/a	ATTIC	n/a	-999	0	-1	[0, 0, 0]	n/a	0	0	0	n/a	n/a	0.0	0	0	0	catFR3	1	R1243T
91.917	0.0	98945	DISTRACT_START	n/a	n/a	n/a	n/a	-999	0	-1	[0, 0, 0]	n/a	0	0	0	n/a	n/a	0.0	0	0	0	catFR3	1	R1243T
91.917	0.016	98945	START	n/a	n/a	n/a	n/a	-999	0	-1	[-999, -999, -999]	n/a	0	0	0	n/a	n/a	0.0	0	0	0	catFR3	1	R1243T
91.933	5.135	98961	PROB	5.106	n/a	n/a	n/a	-999	0	-1	[9, 7, 7]	23	0	0	0	n/a	n/a	0.0	0	0	0	catFR3	1	R1243T
97.068	3.617	104096	PROB	3.587	n/a	n/a	n/a	-999	0	-1	[1, 4, 6]	11	0	0	0	n/a	n/a	0.0	0	0	0	catFR3	1	R1243T
100.685	3.584	107712	PROB	3.547	n/a	n/a	n/a	-999	0	-1	[2, 6, 1]	9	0	0	0	n/a	n/a	0.0	0	0	0	catFR3	1	R1243T
104.269	4.567	111296	PROB	4.537	n/a	n/a	n/a	-999	0	-1	[5, 7, 2]	14	0	0	0	n/a	n/a	0.0	0	0	0	catFR3	1	R1243T
108.836	3.721	115863	PROB	3.721	n/a	n/a	n/a	-999	0	-1	[4, 4, 7]	15	0	0	0	n/a	n/a	0.0	0	0	0	catFR3	1	R1243T
112.557	0.013	119584	STOP	n/a	n/a	n/a	n/a	-999	0	-1	[-999, -999, -999]	n/a	0	0	0	n/a	n/a	0.0	0	0	0	catFR3	1	R1243T
112.57	0.601	119597	DISTRACT_END	n/a	n/a	n/a	n/a	-999	0	-1	[0, 0, 0]	n/a	0	0	0	n/a	n/a	0.0	0	0	0	catFR3	1	R1243T
113.171	0.5	120198	RETRIEVAL_ORIENT	n/a	n/a	n/a	n/a	-999	0	-1	[0, 0, 0]	n/a	0	0	0	n/a	n/a	0.0	0	0	0	catFR3	1	R1243T
113.688	30.011	120714	PRACTICE_REC_START	n/a	n/a	n/a	n/a	-999	0	-1	[0, 0, 0]	n/a	0	0	0	n/a	n/a	0.0	0	0	0	catFR3	1	R1243T
143.699	10.861	150724	PRACTICE_REC_END	n/a	n/a	n/a	n/a	-999	0	-1	[0, 0, 0]	n/a	0	0	0	n/a	n/a	0.0	0	0	0	catFR3	1	R1243T
154.56	0.5	161584	TRIAL	n/a	n/a	n/a	n/a	-999	0	1	[0, 0, 0]	n/a	0	0	0	n/a	n/a	0.0	0	0	0	catFR3	1	R1243T
155.06	10.0	162084	COUNTDOWN_START	n/a	n/a	n/a	n/a	-999	0	1	[0, 0, 0]	n/a	0	0	0	n/a	n/a	0.0	0	0	0	catFR3	1	R1243T
165.488	0.008	172511	COUNTDOWN_END	n/a	n/a	n/a	n/a	-999	0	1	[0, 0, 0]	n/a	0	0	0	n/a	n/a	0.0	0	0	0	catFR3	1	R1243T
165.496	1.6	172519	ORIENT	n/a	n/a	n/a	n/a	-999	0	1	[0, 0, 0]	n/a	0	0	0	n/a	n/a	0.0	0	0	0	catFR3	1	R1243T
167.114	2.267	174137	ORIENT_OFF	n/a	n/a	n/a	n/a	-999	0	1	[0, 0, 0]	n/a	0	0	0	n/a	n/a	0.0	0	0	0	catFR3	1	R1243T
169.381	1.6	176404	WORD	n/a	wordpools/wordpool.txt	PANTS	Clothing	1	1	1	[0, 0, 0]	n/a	0	0	0	n/a	n/a	0.0	0	0	0	catFR3	1	R1243T
170.998	1.0	178021	WORD_OFF	n/a	n/a	PANTS	n/a	1	0	1	[0, 0, 0]	n/a	0	0	0	n/a	n/a	0.0	0	0	0	catFR3	1	R1243T
171.998	1.6	179021	WORD	n/a	wordpools/wordpool.txt	UNDERWEAR	Clothing	2	0	1	[0, 0, 0]	n/a	0	0	0	n/a	n/a	0.0	0	0	0	catFR3	1	R1243T
173.615	0.8	180638	WORD_OFF	n/a	n/a	UNDERWEAR	n/a	2	0	1	[0, 0, 0]	n/a	0	0	0	n/a	n/a	0.0	0	0	0	catFR3	1	R1243T
174.415	1.6	181438	WORD	n/a	wordpools/wordpool.txt	ROSE	Flowers	3	0	1	[0, 0, 0]	n/a	0	0	0	n/a	n/a	0.0	0	0	0	catFR3	1	R1243T
176.032	0.866	183055	WORD_OFF	n/a	n/a	ROSE	n/a	3	0	1	[0, 0, 0]	n/a	0	0	0	n/a	n/a	0.0	0	0	0	catFR3	1	R1243T
176.898	1.6	183921	WORD	n/a	wordpools/wordpool.txt	SUNFLOWER	Flowers	4	0	1	[0, 0, 0]	n/a	0	0	0	n/a	n/a	0.0	0	0	0	catFR3	1	R1243T
178.515	0.784	185538	WORD_OFF	n/a	n/a	SUNFLOWER	n/a	4	0	1	[0, 0, 0]	n/a	0	0	0	n/a	n/a	0.0	0	0	0	catFR3	1	R1243T
179.299	1.6	186322	WORD	n/a	wordpools/wordpool.txt	CRICKET	Insects	5	1	1	[0, 0, 0]	n/a	0	0	0	n/a	n/a	0.0	0	0	0	catFR3	1	R1243T
180.916	0.817	187938	WORD_OFF	n/a	n/a	CRICKET	n/a	5	0	1	[0, 0, 0]	n/a	0	0	0	n/a	n/a	0.0	0	0	0	catFR3	1	R1243T
181.733	1.6	188755	WORD	n/a	wordpools/wordpool.txt	SPIDER	Insects	6	0	1	[0, 0, 0]	n/a	0	0	0	n/a	n/a	0.0	0	0	0	catFR3	1	R1243T
183.35	0.917	190372	WORD_OFF	n/a	n/a	SPIDER	n/a	6	0	1	[0, 0, 0]	n/a	0	0	0	n/a	n/a	0.0	0	0	0	catFR3	1	R1243T
184.267	1.6	191289	WORD	n/a	wordpools/wordpool.txt	SOCKS	Clothing	7	0	1	[0, 0, 0]	n/a	0	0	0	n/a	n/a	0.0	0	0	0	catFR3	1	R1243T
185.884	0.9	192906	WORD_OFF	n/a	n/a	SOCKS	n/a	7	0	1	[0, 0, 0]	n/a	0	0	0	n/a	n/a	0.0	0	0	0	catFR3	1	R1243T
186.784	1.6	193806	WORD	n/a	wordpools/wordpool.txt	DRESS	Clothing	8	1	1	[0, 0, 0]	n/a	0	0	0	n/a	n/a	0.0	0	0	0	catFR3	1	R1243T
188.401	0.883	195423	WORD_OFF	n/a	n/a	DRESS	n/a	8	0	1	[0, 0, 0]	n/a	0	0	0	n/a	n/a	0.0	0	0	0	catFR3	1	R1243T
189.284	1.6	196306	WORD	n/a	wordpools/wordpool.txt	DAISY	Flowers	9	0	1	[0, 0, 0]	n/a	0	0	0	n/a	n/a	0.0	0	0	0	catFR3	1	R1243T
190.901	1.001	197923	WORD_OFF	n/a	n/a	DAISY	n/a	9	0	1	[0, 0, 0]	n/a	0	0	0	n/a	n/a	0.0	0	0	0	catFR3	1	R1243T
191.902	1.6	198924	WORD	n/a	wordpools/wordpool.txt	TULIP	Flowers	10	0	1	[0, 0, 0]	n/a	0	0	0	n/a	n/a	0.0	0	0	0	catFR3	1	R1243T
193.517	0.918	200539	WORD_OFF	n/a	n/a	TULIP	n/a	10	0	1	[0, 0, 0]	n/a	0	0	0	n/a	n/a	0.0	0	0	0	catFR3	1	R1243T
194.435	1.6	201457	WORD	n/a	wordpools/wordpool.txt	BEE	Insects	11	0	1	[0, 0, 0]	n/a	0	0	0	n/a	n/a	0.0	0	0	0	catFR3	1	R1243T
196.052	0.784	203074	WORD_OFF	n/a	n/a	BEE	n/a	11	0	1	[0, 0, 0]	n/a	0	0	0	n/a	n/a	0.0	0	0	0	catFR3	1	R1243T
196.836	1.6	203857	WORD	n/a	wordpools/wordpool.txt	GNAT	Insects	12	0	1	[0, 0, 0]	n/a	0	0	0	n/a	n/a	0.0	0	0	0	catFR3	1	R1243T
198.453	0.0	205474	WORD_OFF	n/a	n/a	GNAT	n/a	12	0	1	[0, 0, 0]	n/a	0	0	0	n/a	n/a	0.0	0	0	0	catFR3	1	R1243T
198.453	0.056	205474	ENCODING_END	n/a	n/a	n/a	n/a	-999	0	1	[0, 0, 0]	n/a	0	0	0	n/a	n/a	0.0	0	0	0	catFR3	1	R1243T
198.509	0.001	205530	DISTRACT_START	n/a	n/a	n/a	n/a	-999	0	1	[0, 0, 0]	n/a	0	0	0	n/a	n/a	0.0	0	0	0	catFR3	1	R1243T
198.51	0.008	205531	START	n/a	n/a	n/a	n/a	-999	0	1	[-999, -999, -999]	n/a	0	0	0	n/a	n/a	0.0	0	0	0	catFR3	1	R1243T
198.518	6.419	205539	PROB	6.384	n/a	n/a	n/a	-999	0	1	[3, 2, 8]	13	0	0	0	n/a	n/a	0.0	0	0	0	catFR3	1	R1243T
204.937	4.151	211958	PROB	4.117	n/a	n/a	n/a	-999	0	1	[2, 8, 6]	16	0	0	0	n/a	n/a	0.0	0	0	0	catFR3	1	R1243T
209.088	4.167	216109	PROB	4.142	n/a	n/a	n/a	-999	0	1	[6, 8, 2]	16	0	0	0	n/a	n/a	0.0	0	0	0	catFR3	1	R1243T
213.255	3.684	220275	PROB	3.657	n/a	n/a	n/a	-999	0	1	[2, 8, 7]	17	0	0	0	n/a	n/a	0.0	0	0	0	catFR3	1	R1243T
216.939	4.485	223959	PROB	4.485	n/a	n/a	n/a	-999	0	1	[5, 1, 3]	9	0	0	0	n/a	n/a	0.0	0	0	0	catFR3	1	R1243T
221.424	0.016	228444	STOP	n/a	n/a	n/a	n/a	-999	0	1	[-999, -999, -999]	n/a	0	0	0	n/a	n/a	0.0	0	0	0	catFR3	1	R1243T
221.44	0.534	228460	DISTRACT_END	n/a	n/a	n/a	n/a	-999	0	1	[0, 0, 0]	n/a	0	0	0	n/a	n/a	0.0	0	0	0	catFR3	1	R1243T
221.974	0.5	228994	RETRIEVAL_ORIENT	n/a	n/a	n/a	n/a	-999	0	1	[0, 0, 0]	n/a	0	0	0	n/a	n/a	0.0	0	0	0	catFR3	1	R1243T
222.49	3.413	229510	REC_START	n/a	n/a	n/a	n/a	-999	0	1	[0, 0, 0]	n/a	0	0	0	n/a	n/a	0.0	0	0	0	catFR3	1	R1243T
225.903	2.012	232923	REC_WORD	3.413	n/a	WATCH	n/a	-999	0	1	[0, 0, 0]	n/a	0	0	0	n/a	n/a	0.0	0	0	0	catFR3	1	R1243T
227.915	6.499	234935	REC_WORD	5.425	n/a	CRICKET	Insects	5	1	1	[0, 0, 0]	n/a	0	0	0	n/a	n/a	0.0	0	0	0	catFR3	1	R1243T
234.414	1.149	241433	REC_WORD	11.924	n/a	SHOES	n/a	-999	0	1	[0, 0, 0]	n/a	0	0	0	n/a	n/a	0.0	0	0	0	catFR3	1	R1243T
235.563	1.315	242582	REC_WORD	13.073	n/a	DRESS	Clothing	8	1	1	[0, 0, 0]	n/a	0	0	0	n/a	n/a	0.0	0	0	0	catFR3	1	R1243T
236.878	15.623	243897	REC_WORD	14.388	n/a	PANTS	Clothing	1	1	1	[0, 0, 0]	n/a	0	0	0	n/a	n/a	0.0	0	0	0	catFR3	1	R1243T
252.501	8.079	259519	REC_END	n/a	n/a	n/a	n/a	-999	0	1	[0, 0, 0]	n/a	0	0	0	n/a	n/a	0.0	0	0	0	catFR3	1	R1243T
260.58	0.5	267598	TRIAL	n/a	n/a	n/a	n/a	-999	0	2	[0, 0, 0]	n/a	0	0	0	n/a	n/a	0.0	0	0	0	catFR3	1	R1243T
261.08	10.0	268098	COUNTDOWN_START	n/a	n/a	n/a	n/a	-999	0	2	[0, 0, 0]	n/a	0	0	0	n/a	n/a	0.0	0	0	0	catFR3	1	R1243T
271.508	0.007	278525	COUNTDOWN_END	n/a	n/a	n/a	n/a	-999	0	2	[0, 0, 0]	n/a	0	0	0	n/a	n/a	0.0	0	0	0	catFR3	1	R1243T
271.515	1.6	278532	ORIENT	n/a	n/a	n/a	n/a	-999	0	2	[0, 0, 0]	n/a	0	0	0	n/a	n/a	0.0	0	0	0	catFR3	1	R1243T
273.133	1.984	280150	ORIENT_OFF	n/a	n/a	n/a	n/a	-999	0	2	[0, 0, 0]	n/a	0	0	0	n/a	n/a	0.0	0	0	0	catFR3	1	R1243T
275.117	1.6	282134	WORD	n/a	wordpools/wordpool.txt	BROCCOLI	Vegetables	1	0	2	[0, 0, 0]	n/a	0	0	0	n/a	n/a	0.0	0	0	0	catFR3	1	R1243T
276.734	0.883	283751	WORD_OFF	n/a	n/a	BROCCOLI	n/a	1	0	2	[0, 0, 0]	n/a	0	0	0	n/a	n/a	0.0	0	0	0	catFR3	1	R1243T
277.617	1.6	284634	WORD	n/a	wordpools/wordpool.txt	SPINACH	Vegetables	2	1	2	[0, 0, 0]	n/a	0	0	0	n/a	n/a	0.0	0	0	0	catFR3	1	R1243T
279.234	0.967	286250	WORD_OFF	n/a	n/a	SPINACH	n/a	2	0	2	[0, 0, 0]	n/a	0	0	0	n/a	n/a	0.0	0	0	0	catFR3	1	R1243T
280.201	1.6	287217	WORD	n/a	wordpools/wordpool.txt	MOUNTAIN	Landscapes	3	1	2	[0, 0, 0]	n/a	0	0	0	n/a	n/a	0.0	0	0	0	catFR3	1	R1243T
281.818	0.8	288834	WORD_OFF	n/a	n/a	MOUNTAIN	n/a	3	0	2	[0, 0, 0]	n/a	0	0	0	n/a	n/a	0.0	0	0	0	catFR3	1	R1243T
282.618	1.6	289634	WORD	n/a	wordpools/wordpool.txt	ISLAND	Landscapes	4	0	2	[0, 0, 0]	n/a	0	0	0	n/a	n/a	0.0	0	0	0	catFR3	1	R1243T
284.235	0.883	291251	WORD_OFF	n/a	n/a	ISLAND	n/a	4	0	2	[0, 0, 0]	n/a	0	0	0	n/a	n/a	0.0	0	0	0	catFR3	1	R1243T
285.118	1.6	292134	WORD	n/a	wordpools/wordpool.txt	RULER	OfficeSupplies	5	0	2	[0, 0, 0]	n/a	0	0	0	n/a	n/a	0.0	0	0	0	catFR3	1	R1243T
286.735	0.884	293751	WORD_OFF	n/a	n/a	RULER	n/a	5	0	2	[0, 0, 0]	n/a	0	0	0	n/a	n/a	0.0	0	0	0	catFR3	1	R1243T
287.619	1.6	294635	WORD	n/a	wordpools/wordpool.txt	PAPER	OfficeSupplies	6	0	2	[0, 0, 0]	n/a	0	0	0	n/a	n/a	0.0	0	0	0	catFR3	1	R1243T
289.236	0.8	296252	WORD_OFF	n/a	n/a	PAPER	n/a	6	0	2	[0, 0, 0]	n/a	0	0	0	n/a	n/a	0.0	0	0	0	catFR3	1	R1243T
290.036	1.6	297052	WORD	n/a	wordpools/wordpool.txt	CABBAGE	Vegetables	7	1	2	[0, 0, 0]	n/a	0	0	0	n/a	n/a	0.0	0	0	0	catFR3	1	R1243T
291.653	0.983	298669	WORD_OFF	n/a	n/a	CABBAGE	n/a	7	0	2	[0, 0, 0]	n/a	0	0	0	n/a	n/a	0.0	0	0	0	catFR3	1	R1243T
292.636	1.6	299652	WORD	n/a	wordpools/wordpool.txt	CAULIFLOWER	Vegetables	8	1	2	[0, 0, 0]	n/a	0	0	0	n/a	n/a	0.0	0	0	0	catFR3	1	R1243T
294.253	0.951	301269	WORD_OFF	n/a	n/a	CAULIFLOWER	n/a	8	0	2	[0, 0, 0]	n/a	0	0	0	n/a	n/a	0.0	0	0	0	catFR3	1	R1243T
295.204	1.6	302220	WORD	n/a	wordpools/wordpool.txt	WOODS	Landscapes	9	0	2	[0, 0, 0]	n/a	0	0	0	n/a	n/a	0.0	0	0	0	catFR3	1	R1243T
296.821	0.933	303836	WORD_OFF	n/a	n/a	WOODS	n/a	9	0	2	[0, 0, 0]	n/a	0	0	0	n/a	n/a	0.0	0	0	0	catFR3	1	R1243T
297.754	1.6	304769	WORD	n/a	wordpools/wordpool.txt	FOREST	Landscapes	10	0	2	[0, 0, 0]	n/a	0	0	0	n/a	n/a	0.0	0	0	0	catFR3	1	R1243T
299.371	0.95	306386	WORD_OFF	n/a	n/a	FOREST	n/a	10	0	2	[0, 0, 0]	n/a	0	0	0	n/a	n/a	0.0	0	0	0	catFR3	1	R1243T
300.321	1.6	307336	WORD	n/a	wordpools/wordpool.txt	STAPLER	OfficeSupplies	11	0	2	[0, 0, 0]	n/a	0	0	0	n/a	n/a	0.0	0	0	0	catFR3	1	R1243T
301.938	0.9	308953	WORD_OFF	n/a	n/a	STAPLER	n/a	11	0	2	[0, 0, 0]	n/a	0	0	0	n/a	n/a	0.0	0	0	0	catFR3	1	R1243T
302.838	1.6	309853	WORD	n/a	wordpools/wordpool.txt	TAPE	OfficeSupplies	12	0	2	[0, 0, 0]	n/a	0	0	0	n/a	n/a	0.0	0	0	0	catFR3	1	R1243T
304.455	0.0	311470	ENCODING_END	n/a	n/a	n/a	n/a	-999	0	2	[0, 0, 0]	n/a	0	0	0	n/a	n/a	0.0	0	0	0	catFR3	1	R1243T
304.455	0.058	311470	WORD_OFF	n/a	n/a	TAPE	n/a	12	0	2	[0, 0, 0]	n/a	0	0	0	n/a	n/a	0.0	0	0	0	catFR3	1	R1243T
304.513	0.0	311528	DISTRACT_START	n/a	n/a	n/a	n/a	-999	0	2	[0, 0, 0]	n/a	0	0	0	n/a	n/a	0.0	0	0	0	catFR3	1	R1243T
304.513	0.008	311528	START	n/a	n/a	n/a	n/a	-999	0	2	[-999, -999, -999]	n/a	0	0	0	n/a	n/a	0.0	0	0	0	catFR3	1	R1243T
304.521	4.518	311536	PROB	4.485	n/a	n/a	n/a	-999	0	2	[2, 8, 5]	15	0	0	0	n/a	n/a	0.0	0	0	0	catFR3	1	R1243T
309.039	3.718	316054	PROB	3.687	n/a	n/a	n/a	-999	0	2	[5, 6, 5]	16	0	0	0	n/a	n/a	0.0	0	0	0	catFR3	1	R1243T
312.757	3.833	319771	PROB	3.801	n/a	n/a	n/a	-999	0	2	[2, 1, 8]	11	0	0	0	n/a	n/a	0.0	0	0	0	catFR3	1	R1243T
316.59	4.035	323604	PROB	4.009	n/a	n/a	n/a	-999	0	2	[6, 7, 4]	17	0	0	0	n/a	n/a	0.0	0	0	0	catFR3	1	R1243T
320.625	4.39	327639	PROB	4.39	n/a	n/a	n/a	-999	0	2	[7, 3, 3]	13	0	0	0	n/a	n/a	0.0	0	0	0	catFR3	1	R1243T
325.015	0.011	332029	STOP	n/a	n/a	n/a	n/a	-999	0	2	[-999, -999, -999]	n/a	0	0	0	n/a	n/a	0.0	0	0	0	catFR3	1	R1243T
325.026	0.565	332040	DISTRACT_END	n/a	n/a	n/a	n/a	-999	0	2	[0, 0, 0]	n/a	0	0	0	n/a	n/a	0.0	0	0	0	catFR3	1	R1243T
325.591	0.5	332605	RETRIEVAL_ORIENT	n/a	n/a	n/a	n/a	-999	0	2	[0, 0, 0]	n/a	0	0	0	n/a	n/a	0.0	0	0	0	catFR3	1	R1243T
326.11	3.685	333124	REC_START	n/a	n/a	n/a	n/a	-999	0	2	[0, 0, 0]	n/a	0	0	0	n/a	n/a	0.0	0	0	0	catFR3	1	R1243T
329.795	3.817	336808	REC_WORD	3.685	n/a	MOUNTAIN	Landscapes	3	1	2	[0, 0, 0]	n/a	0	0	0	n/a	n/a	0.0	0	0	0	catFR3	1	R1243T
333.612	3.783	340625	REC_WORD	7.502	n/a	STREAM	n/a	-999	0	2	[0, 0, 0]	n/a	0	0	0	n/a	n/a	0.0	0	0	0	catFR3	1	R1243T
337.395	2.891	344408	REC_WORD	11.285	n/a	PANTS	n/a	-999	0	2	[0, 0, 0]	n/a	0	0	0	n/a	n/a	0.0	0	0	0	catFR3	1	R1243T
340.286	1.832	347299	REC_WORD	14.176	n/a	CABBAGE	Vegetables	7	1	2	[0, 0, 0]	n/a	0	0	0	n/a	n/a	0.0	0	0	0	catFR3	1	R1243T
342.118	4.193	349131	REC_WORD	16.008	n/a	CAULIFLOWER	Vegetables	8	1	2	[0, 0, 0]	n/a	0	0	0	n/a	n/a	0.0	0	0	0	catFR3	1	R1243T
346.311	9.81	353323	REC_WORD	20.201	n/a	SPINACH	Vegetables	2	1	2	[0, 0, 0]	n/a	0	0	0	n/a	n/a	0.0	0	0	0	catFR3	1	R1243T
356.121	5.41	363133	REC_END	n/a	n/a	n/a	n/a	-999	0	2	[0, 0, 0]	n/a	0	0	0	n/a	n/a	0.0	0	0	0	catFR3	1	R1243T
361.531	0.5	368542	TRIAL	n/a	n/a	n/a	n/a	-999	0	3	[0, 0, 0]	n/a	0	0	0	n/a	n/a	0.0	0	0	0	catFR3	1	R1243T
362.031	10.0	369042	COUNTDOWN_START	n/a	n/a	n/a	n/a	-999	0	3	[0, 0, 0]	n/a	0	0	0	n/a	n/a	0.0	0	0	0	catFR3	1	R1243T
372.459	0.009	379470	COUNTDOWN_END	n/a	n/a	n/a	n/a	-999	0	3	[0, 0, 0]	n/a	0	0	0	n/a	n/a	0.0	0	0	0	catFR3	1	R1243T
372.468	1.6	379479	ORIENT	n/a	n/a	n/a	n/a	-999	0	3	[0, 0, 0]	n/a	0	0	0	n/a	n/a	0.0	0	0	0	catFR3	1	R1243T
374.085	2.083	381096	ORIENT_OFF	n/a	n/a	n/a	n/a	-999	0	3	[0, 0, 0]	n/a	0	0	0	n/a	n/a	0.0	0	0	0	catFR3	1	R1243T
376.168	1.6	383179	WORD	n/a	wordpools/wordpool.txt	BEAR	Zoo	1	1	3	[0, 0, 0]	n/a	0	0	0	n/a	n/a	0.0	0	0	0	catFR3	1	R1243T
377.785	0.783	384796	WORD_OFF	n/a	n/a	BEAR	n/a	1	0	3	[0, 0, 0]	n/a	0	0	0	n/a	n/a	0.0	0	0	0	catFR3	1	R1243T
378.568	1.6	385578	WORD	n/a	wordpools/wordpool.txt	CHIMPANZEE	Zoo	2	1	3	[0, 0, 0]	n/a	0	0	0	n/a	n/a	0.0	0	0	0	catFR3	1	R1243T
380.169	0.884	387179	WORD_OFF	n/a	n/a	CHIMPANZEE	n/a	2	0	3	[0, 0, 0]	n/a	0	0	0	n/a	n/a	0.0	0	0	0	catFR3	1	R1243T
381.053	1.6	388063	WORD	n/a	wordpools/wordpool.txt	BOOKCASE	Furniture	3	1	3	[0, 0, 0]	n/a	0	0	0	n/a	n/a	0.0	0	0	0	catFR3	1	R1243T
382.669	0.967	389679	WORD_OFF	n/a	n/a	BOOKCASE	n/a	3	0	3	[0, 0, 0]	n/a	0	0	0	n/a	n/a	0.0	0	0	0	catFR3	1	R1243T
383.636	1.6	390646	WORD	n/a	wordpools/wordpool.txt	SHELF	Furniture	4	1	3	[0, 0, 0]	n/a	0	0	0	n/a	n/a	0.0	0	0	0	catFR3	1	R1243T
385.253	0.767	392263	WORD_OFF	n/a	n/a	SHELF	n/a	4	0	3	[0, 0, 0]	n/a	0	0	0	n/a	n/a	0.0	0	0	0	catFR3	1	R1243T
386.02	1.6	393030	WORD	n/a	wordpools/wordpool.txt	BEETLE	Insects	5	0	3	[0, 0, 0]	n/a	0	0	0	n/a	n/a	0.0	0	0	0	catFR3	1	R1243T
387.637	0.8	394647	WORD_OFF	n/a	n/a	BEETLE	n/a	5	0	3	[0, 0, 0]	n/a	0	0	0	n/a	n/a	0.0	0	0	0	catFR3	1	R1243T
388.437	1.6	395447	WORD	n/a	wordpools/wordpool.txt	MOSQUITO	Insects	6	0	3	[0, 0, 0]	n/a	0	0	0	n/a	n/a	0.0	0	0	0	catFR3	1	R1243T
390.054	0.867	397064	WORD_OFF	n/a	n/a	MOSQUITO	n/a	6	0	3	[0, 0, 0]	n/a	0	0	0	n/a	n/a	0.0	0	0	0	catFR3	1	R1243T
390.921	1.6	397931	WORD	n/a	wordpools/wordpool.txt	ORANGUTAN	Zoo	7	0	3	[0, 0, 0]	n/a	0	0	0	n/a	n/a	0.0	0	0	0	catFR3	1	R1243T
392.537	0.768	399547	WORD_OFF	n/a	n/a	ORANGUTAN	n/a	7	0	3	[0, 0, 0]	n/a	0	0	0	n/a	n/a	0.0	0	0	0	catFR3	1	R1243T
393.305	1.6	400315	WORD	n/a	wordpools/wordpool.txt	ZEBRA	Zoo	8	0	3	[0, 0, 0]	n/a	0	0	0	n/a	n/a	0.0	0	0	0	catFR3	1	R1243T
394.922	0.9	401931	WORD_OFF	n/a	n/a	ZEBRA	n/a	8	0	3	[0, 0, 0]	n/a	0	0	0	n/a	n/a	0.0	0	0	0	catFR3	1	R1243T
395.822	1.6	402831	WORD	n/a	wordpools/wordpool.txt	CHAIR	Furniture	9	0	3	[0, 0, 0]	n/a	0	0	0	n/a	n/a	0.0	0	0	0	catFR3	1	R1243T
397.439	0.933	404448	WORD_OFF	n/a	n/a	CHAIR	n/a	9	0	3	[0, 0, 0]	n/a	0	0	0	n/a	n/a	0.0	0	0	0	catFR3	1	R1243T
398.372	1.6	405381	WORD	n/a	wordpools/wordpool.txt	DRESSER	Furniture	10	1	3	[0, 0, 0]	n/a	0	0	0	n/a	n/a	0.0	0	0	0	catFR3	1	R1243T
399.989	0.934	406998	WORD_OFF	n/a	n/a	DRESSER	n/a	10	0	3	[0, 0, 0]	n/a	0	0	0	n/a	n/a	0.0	0	0	0	catFR3	1	R1243T
400.923	1.6	407932	WORD	n/a	wordpools/wordpool.txt	ANT	Insects	11	0	3	[0, 0, 0]	n/a	0	0	0	n/a	n/a	0.0	0	0	0	catFR3	1	R1243T
402.539	0.801	409548	WORD_OFF	n/a	n/a	ANT	n/a	11	0	3	[0, 0, 0]	n/a	0	0	0	n/a	n/a	0.0	0	0	0	catFR3	1	R1243T
403.34	1.6	410349	WORD	n/a	wordpools/wordpool.txt	FLY	Insects	12	0	3	[0, 0, 0]	n/a	0	0	0	n/a	n/a	0.0	0	0	0	catFR3	1	R1243T
404.957	0.0	411966	ENCODING_END	n/a	n/a	n/a	n/a	-999	0	3	[0, 0, 0]	n/a	0	0	0	n/a	n/a	0.0	0	0	0	catFR3	1	R1243T
404.957	0.057	411966	WORD_OFF	n/a	n/a	FLY	n/a	12	0	3	[0, 0, 0]	n/a	0	0	0	n/a	n/a	0.0	0	0	0	catFR3	1	R1243T
405.014	0.0	412023	DISTRACT_START	n/a	n/a	n/a	n/a	-999	0	3	[0, 0, 0]	n/a	0	0	0	n/a	n/a	0.0	0	0	0	catFR3	1	R1243T
405.014	0.01	412023	START	n/a	n/a	n/a	n/a	-999	0	3	[-999, -999, -999]	n/a	0	0	0	n/a	n/a	0.0	0	0	0	catFR3	1	R1243T
405.024	5.134	412033	PROB	5.103	n/a	n/a	n/a	-999	0	3	[8, 1, 5]	14	0	0	0	n/a	n/a	0.0	0	0	0	catFR3	1	R1243T
410.158	3.15	417167	PROB	3.114	n/a	n/a	n/a	-999	0	3	[2, 2, 8]	12	0	0	0	n/a	n/a	0.0	0	0	0	catFR3	1	R1243T
413.308	5.234	420316	PROB	5.203	n/a	n/a	n/a	-999	0	3	[6, 5, 8]	19	0	0	0	n/a	n/a	0.0	0	0	0	catFR3	1	R1243T
418.542	5.218	425550	PROB	5.192	n/a	n/a	n/a	-999	0	3	[6, 9, 7]	23	0	0	0	n/a	n/a	0.0	0	0	0	catFR3	1	R1243T
423.76	3.51	430768	PROB	3.51	n/a	n/a	n/a	-999	0	3	[7, 3, 2]	12	0	0	0	n/a	n/a	0.0	0	0	0	catFR3	1	R1243T
427.27	0.008	434278	STOP	n/a	n/a	n/a	n/a	-999	0	3	[-999, -999, -999]	n/a	0	0	0	n/a	n/a	0.0	0	0	0	catFR3	1	R1243T
427.278	0.533	434286	DISTRACT_END	n/a	n/a	n/a	n/a	-999	0	3	[0, 0, 0]	n/a	0	0	0	n/a	n/a	0.0	0	0	0	catFR3	1	R1243T
427.811	0.5	434818	RETRIEVAL_ORIENT	n/a	n/a	n/a	n/a	-999	0	3	[0, 0, 0]	n/a	0	0	0	n/a	n/a	0.0	0	0	0	catFR3	1	R1243T
428.328	0.995	435335	REC_START	n/a	n/a	n/a	n/a	-999	0	3	[0, 0, 0]	n/a	0	0	0	n/a	n/a	0.0	0	0	0	catFR3	1	R1243T
429.323	1.077	436330	REC_WORD	0.995	n/a	BEAR	Zoo	1	1	3	[0, 0, 0]	n/a	0	0	0	n/a	n/a	0.0	0	0	0	catFR3	1	R1243T
430.4	2.096	437407	REC_WORD	2.072	n/a	CHIMPANZEE	Zoo	2	1	3	[0, 0, 0]	n/a	0	0	0	n/a	n/a	0.0	0	0	0	catFR3	1	R1243T
432.496	10.043	439503	REC_WORD	4.168	n/a	GORILLA	n/a	-999	0	3	[0, 0, 0]	n/a	0	0	0	n/a	n/a	0.0	0	0	0	catFR3	1	R1243T
442.539	6.253	449546	REC_WORD	14.211	n/a	PEA	n/a	-999	0	3	[0, 0, 0]	n/a	0	0	0	n/a	n/a	0.0	0	0	0	catFR3	1	R1243T
448.792	0.979	455798	REC_WORD	20.464	n/a	BOOKCASE	Furniture	3	1	3	[0, 0, 0]	n/a	0	0	0	n/a	n/a	0.0	0	0	0	catFR3	1	R1243T
449.771	2.473	456777	REC_WORD	21.443	n/a	SHELF	Furniture	4	1	3	[0, 0, 0]	n/a	0	0	0	n/a	n/a	0.0	0	0	0	catFR3	1	R1243T
452.244	6.097	459250	REC_WORD	23.916	n/a	DRESSER	Furniture	10	1	3	[0, 0, 0]	n/a	0	0	0	n/a	n/a	0.0	0	0	0	catFR3	1	R1243T
458.341	7.159	465347	REC_END	n/a	n/a	n/a	n/a	-999	0	3	[0, 0, 0]	n/a	0	0	0	n/a	n/a	0.0	0	0	0	catFR3	1	R1243T
465.5	0.5	472505	TRIAL	n/a	n/a	n/a	n/a	-999	0	4	[0, 0, 0]	n/a	0	0	0	n/a	n/a	0.0	0	0	0	catFR3	1	R1243T
466.0	10.0	473005	COUNTDOWN_START	n/a	n/a	n/a	n/a	-999	0	4	[0, 0, 0]	n/a	0	0	0	n/a	n/a	0.0	0	0	0	catFR3	1	R1243T
476.428	0.008	483433	COUNTDOWN_END	n/a	n/a	n/a	n/a	-999	0	4	[0, 0, 0]	n/a	0	0	0	n/a	n/a	0.0	0	0	0	catFR3	1	R1243T
476.436	1.6	483441	ORIENT	n/a	n/a	n/a	n/a	-999	0	4	[0, 0, 0]	n/a	0	0	0	n/a	n/a	0.0	0	0	0	catFR3	1	R1243T
478.054	1.933	485058	ORIENT_OFF	n/a	n/a	n/a	n/a	-999	0	4	[0, 0, 0]	n/a	0	0	0	n/a	n/a	0.0	0	0	0	catFR3	1	R1243T
479.987	1.6	486991	WORD	n/a	wordpools/wordpool.txt	TRAIN	Vehicles	1	1	4	[0, 0, 0]	n/a	0	0	0	n/a	n/a	0.0	0	0	0	catFR3	1	R1243T
481.604	0.983	488608	WORD_OFF	n/a	n/a	TRAIN	n/a	1	0	4	[0, 0, 0]	n/a	0	0	0	n/a	n/a	0.0	0	0	0	catFR3	1	R1243T
482.587	1.6	489591	WORD	n/a	wordpools/wordpool.txt	SCOOTER	Vehicles	2	0	4	[0, 0, 0]	n/a	0	0	0	n/a	n/a	0.0	0	0	0	catFR3	1	R1243T
484.205	0.8	491209	WORD_OFF	n/a	n/a	SCOOTER	n/a	2	0	4	[0, 0, 0]	n/a	0	0	0	n/a	n/a	0.0	0	0	0	catFR3	1	R1243T
485.005	1.6	492009	WORD	n/a	wordpools/wordpool.txt	HILLS	Landscapes	3	0	4	[0, 0, 0]	n/a	0	0	0	n/a	n/a	0.0	0	0	0	catFR3	1	R1243T
486.622	0.899	493626	WORD_OFF	n/a	n/a	HILLS	n/a	3	0	4	[0, 0, 0]	n/a	0	0	0	n/a	n/a	0.0	0	0	0	catFR3	1	R1243T
487.521	1.6	494525	WORD	n/a	wordpools/wordpool.txt	BEACH	Landscapes	4	0	4	[0, 0, 0]	n/a	0	0	0	n/a	n/a	0.0	0	0	0	catFR3	1	R1243T
489.139	0.933	496143	WORD_OFF	n/a	n/a	BEACH	n/a	4	0	4	[0, 0, 0]	n/a	0	0	0	n/a	n/a	0.0	0	0	0	catFR3	1	R1243T
490.072	1.6	497076	WORD	n/a	wordpools/wordpool.txt	GRAPE	Fruit	5	1	4	[0, 0, 0]	n/a	0	0	0	n/a	n/a	0.0	0	0	0	catFR3	1	R1243T
491.689	0.849	498693	WORD_OFF	n/a	n/a	GRAPE	n/a	5	0	4	[0, 0, 0]	n/a	0	0	0	n/a	n/a	0.0	0	0	0	catFR3	1	R1243T
492.538	1.6	499542	WORD	n/a	wordpools/wordpool.txt	PLUM	Fruit	6	1	4	[0, 0, 0]	n/a	0	0	0	n/a	n/a	0.0	0	0	0	catFR3	1	R1243T
494.139	0.951	501142	WORD_OFF	n/a	n/a	PLUM	n/a	6	0	4	[0, 0, 0]	n/a	0	0	0	n/a	n/a	0.0	0	0	0	catFR3	1	R1243T
495.09	1.6	502093	WORD	n/a	wordpools/wordpool.txt	RIVER	Landscapes	7	1	4	[0, 0, 0]	n/a	0	0	0	n/a	n/a	0.0	0	0	0	catFR3	1	R1243T
496.707	0.983	503710	WORD_OFF	n/a	n/a	RIVER	n/a	7	0	4	[0, 0, 0]	n/a	0	0	0	n/a	n/a	0.0	0	0	0	catFR3	1	R1243T
497.69	1.6	504693	WORD	n/a	wordpools/wordpool.txt	LAKE	Landscapes	8	1	4	[0, 0, 0]	n/a	0	0	0	n/a	n/a	0.0	0	0	0	catFR3	1	R1243T
499.307	0.934	506310	WORD_OFF	n/a	n/a	LAKE	n/a	8	0	4	[0, 0, 0]	n/a	0	0	0	n/a	n/a	0.0	0	0	0	catFR3	1	R1243T
500.241	1.6	507244	WORD	n/a	wordpools/wordpool.txt	PLANE	Vehicles	9	0	4	[0, 0, 0]	n/a	0	0	0	n/a	n/a	0.0	0	0	0	catFR3	1	R1243T
501.858	0.967	508861	WORD_OFF	n/a	n/a	PLANE	n/a	9	0	4	[0, 0, 0]	n/a	0	0	0	n/a	n/a	0.0	0	0	0	catFR3	1	R1243T
502.825	1.6	509828	WORD	n/a	wordpools/wordpool.txt	BUS	Vehicles	10	0	4	[0, 0, 0]	n/a	0	0	0	n/a	n/a	0.0	0	0	0	catFR3	1	R1243T
504.442	0.983	511445	WORD_OFF	n/a	n/a	BUS	n/a	10	0	4	[0, 0, 0]	n/a	0	0	0	n/a	n/a	0.0	0	0	0	catFR3	1	R1243T
505.425	1.6	512428	WORD	n/a	wordpools/wordpool.txt	CHERRY	Fruit	11	0	4	[0, 0, 0]	n/a	0	0	0	n/a	n/a	0.0	0	0	0	catFR3	1	R1243T
507.042	1.017	514045	WORD_OFF	n/a	n/a	CHERRY	n/a	11	0	4	[0, 0, 0]	n/a	0	0	0	n/a	n/a	0.0	0	0	0	catFR3	1	R1243T
508.059	1.6	515062	WORD	n/a	wordpools/wordpool.txt	PEACH	Fruit	12	1	4	[0, 0, 0]	n/a	0	0	0	n/a	n/a	0.0	0	0	0	catFR3	1	R1243T
509.676	0.0	516679	ENCODING_END	n/a	n/a	n/a	n/a	-999	0	4	[0, 0, 0]	n/a	0	0	0	n/a	n/a	0.0	0	0	0	catFR3	1	R1243T
509.676	0.078	516679	WORD_OFF	n/a	n/a	PEACH	n/a	12	0	4	[0, 0, 0]	n/a	0	0	0	n/a	n/a	0.0	0	0	0	catFR3	1	R1243T
509.754	0.0	516757	DISTRACT_START	n/a	n/a	n/a	n/a	-999	0	4	[0, 0, 0]	n/a	0	0	0	n/a	n/a	0.0	0	0	0	catFR3	1	R1243T
509.754	0.022	516757	START	n/a	n/a	n/a	n/a	-999	0	4	[-999, -999, -999]	n/a	0	0	0	n/a	n/a	0.0	0	0	0	catFR3	1	R1243T
509.776	4.267	516779	PROB	4.239	n/a	n/a	n/a	-999	0	4	[1, 7, 2]	10	0	0	0	n/a	n/a	0.0	0	0	0	catFR3	1	R1243T
514.043	12.919	521045	PROB	12.884	n/a	n/a	n/a	-999	0	4	[5, 4, 7]	16	0	0	0	n/a	n/a	0.0	0	0	0	catFR3	1	R1243T
526.962	4.373	533963	PROB	4.373	n/a	n/a	n/a	-999	0	4	[5, 2, 4]	11	0	0	0	n/a	n/a	0.0	0	0	0	catFR3	1	R1243T
531.335	0.012	538336	STOP	n/a	n/a	n/a	n/a	-999	0	4	[-999, -999, -999]	n/a	0	0	0	n/a	n/a	0.0	0	0	0	catFR3	1	R1243T
531.347	0.7	538348	DISTRACT_END	n/a	n/a	n/a	n/a	-999	0	4	[0, 0, 0]	n/a	0	0	0	n/a	n/a	0.0	0	0	0	catFR3	1	R1243T
532.047	0.5	539048	RETRIEVAL_ORIENT	n/a	n/a	n/a	n/a	-999	0	4	[0, 0, 0]	n/a	0	0	0	n/a	n/a	0.0	0	0	0	catFR3	1	R1243T
532.563	2.123	539564	REC_START	n/a	n/a	n/a	n/a	-999	0	4	[0, 0, 0]	n/a	0	0	0	n/a	n/a	0.0	0	0	0	catFR3	1	R1243T
534.686	0.802	541687	REC_WORD	2.123	n/a	RIVER	Landscapes	7	1	4	[0, 0, 0]	n/a	0	0	0	n/a	n/a	0.0	0	0	0	catFR3	1	R1243T
535.488	2.117	542489	REC_WORD	2.925	n/a	LAKE	Landscapes	8	1	4	[0, 0, 0]	n/a	0	0	0	n/a	n/a	0.0	0	0	0	catFR3	1	R1243T
537.605	0.998	544606	REC_WORD	5.042	n/a	PLUM	Fruit	6	1	4	[0, 0, 0]	n/a	0	0	0	n/a	n/a	0.0	0	0	0	catFR3	1	R1243T
538.603	1.182	545604	REC_WORD	6.04	n/a	GRAPE	Fruit	5	1	4	[0, 0, 0]	n/a	0	0	0	n/a	n/a	0.0	0	0	0	catFR3	1	R1243T
539.785	7.21	546786	REC_WORD	7.222	n/a	PEACH	Fruit	12	1	4	[0, 0, 0]	n/a	0	0	0	n/a	n/a	0.0	0	0	0	catFR3	1	R1243T
546.995	13.318	553995	REC_WORD	14.432	n/a	TRAIN	Vehicles	1	1	4	[0, 0, 0]	n/a	0	0	0	n/a	n/a	0.0	0	0	0	catFR3	1	R1243T
560.313	2.262	567312	REC_WORD	27.75	n/a	MOUNTAIN	n/a	-999	0	4	[0, 0, 0]	n/a	0	0	0	n/a	n/a	0.0	0	0	0	catFR3	1	R1243T
562.575	25.315	569574	REC_END	n/a	n/a	n/a	n/a	-999	0	4	[0, 0, 0]	n/a	0	0	0	n/a	n/a	0.0	0	0	0	catFR3	1	R1243T
587.89	0.5	594888	TRIAL	n/a	n/a	n/a	n/a	-999	0	5	[0, 0, 0]	n/a	0	0	0	n/a	n/a	0.0	0	0	0	catFR3	1	R1243T
588.39	10.0	595388	COUNTDOWN_START	n/a	n/a	n/a	n/a	-999	0	5	[0, 0, 0]	n/a	0	0	0	n/a	n/a	0.0	0	0	0	catFR3	1	R1243T
598.818	0.008	605815	COUNTDOWN_END	n/a	n/a	n/a	n/a	-999	0	5	[0, 0, 0]	n/a	0	0	0	n/a	n/a	0.0	0	0	0	catFR3	1	R1243T
598.826	1.6	605823	ORIENT	n/a	n/a	n/a	n/a	-999	0	5	[0, 0, 0]	n/a	0	0	0	n/a	n/a	0.0	0	0	0	catFR3	1	R1243T
600.442	2.301	607439	ORIENT_OFF	n/a	n/a	n/a	n/a	-999	0	5	[0, 0, 0]	n/a	0	0	0	n/a	n/a	0.0	0	0	0	catFR3	1	R1243T
602.743	1.6	609740	WORD	n/a	wordpools/wordpool.txt	WHALE	OceanAnimals	1	0	5	[0, 0, 0]	n/a	0	0	0	n/a	n/a	0.0	0	0	0	catFR3	1	R1243T
604.36	0.817	611357	WORD_OFF	n/a	n/a	WHALE	n/a	1	0	5	[0, 0, 0]	n/a	0	0	0	n/a	n/a	0.0	0	0	0	catFR3	1	R1243T
605.177	1.6	612174	WORD	n/a	wordpools/wordpool.txt	SQUID	OceanAnimals	2	0	5	[0, 0, 0]	n/a	0	0	0	n/a	n/a	0.0	0	0	0	catFR3	1	R1243T
606.794	0.966	613791	WORD_OFF	n/a	n/a	SQUID	n/a	2	0	5	[0, 0, 0]	n/a	0	0	0	n/a	n/a	0.0	0	0	0	catFR3	1	R1243T
607.76	1.6	614757	WORD	n/a	wordpools/wordpool.txt	REFRIGERATOR	Appliances	3	1	5	[0, 0, 0]	n/a	0	0	0	n/a	n/a	0.0	0	0	0	catFR3	1	R1243T
609.377	0.917	616373	WORD_OFF	n/a	n/a	REFRIGERATOR	n/a	3	0	5	[0, 0, 0]	n/a	0	0	0	n/a	n/a	0.0	0	0	0	catFR3	1	R1243T
610.294	1.6	617290	WORD	n/a	wordpools/wordpool.txt	IRON	Appliances	4	0	5	[0, 0, 0]	n/a	0	0	0	n/a	n/a	0.0	0	0	0	catFR3	1	R1243T
611.911	0.967	618907	WORD_OFF	n/a	n/a	IRON	n/a	4	0	5	[0, 0, 0]	n/a	0	0	0	n/a	n/a	0.0	0	0	0	catFR3	1	R1243T
612.878	1.6	619874	WORD	n/a	wordpools/wordpool.txt	PIG	FarmAnimals	5	1	5	[0, 0, 0]	n/a	0	0	0	n/a	n/a	0.0	0	0	0	catFR3	1	R1243T
614.494	0.784	621490	WORD_OFF	n/a	n/a	PIG	n/a	5	0	5	[0, 0, 0]	n/a	0	0	0	n/a	n/a	0.0	0	0	0	catFR3	1	R1243T
615.278	1.6	622274	WORD	n/a	wordpools/wordpool.txt	BULL	FarmAnimals	6	0	5	[0, 0, 0]	n/a	0	0	0	n/a	n/a	0.0	0	0	0	catFR3	1	R1243T
616.895	0.817	623891	WORD_OFF	n/a	n/a	BULL	n/a	6	0	5	[0, 0, 0]	n/a	0	0	0	n/a	n/a	0.0	0	0	0	catFR3	1	R1243T
617.712	1.6	624708	WORD	n/a	wordpools/wordpool.txt	FISH	OceanAnimals	7	1	5	[0, 0, 0]	n/a	0	0	0	n/a	n/a	0.0	0	0	0	catFR3	1	R1243T
619.329	0.967	626325	WORD_OFF	n/a	n/a	FISH	n/a	7	0	5	[0, 0, 0]	n/a	0	0	0	n/a	n/a	0.0	0	0	0	catFR3	1	R1243T
620.296	1.6	627292	WORD	n/a	wordpools/wordpool.txt	TURTLE	OceanAnimals	8	0	5	[0, 0, 0]	n/a	0	0	0	n/a	n/a	0.0	0	0	0	catFR3	1	R1243T
621.913	0.934	628909	WORD_OFF	n/a	n/a	TURTLE	n/a	8	0	5	[0, 0, 0]	n/a	0	0	0	n/a	n/a	0.0	0	0	0	catFR3	1	R1243T
622.847	1.6	629843	WORD	n/a	wordpools/wordpool.txt	FREEZER	Appliances	9	1	5	[0, 0, 0]	n/a	0	0	0	n/a	n/a	0.0	0	0	0	catFR3	1	R1243T
624.463	0.767	631459	WORD_OFF	n/a	n/a	FREEZER	n/a	9	0	5	[0, 0, 0]	n/a	0	0	0	n/a	n/a	0.0	0	0	0	catFR3	1	R1243T
625.23	1.6	632226	WORD	n/a	wordpools/wordpool.txt	STOVE	Appliances	10	0	5	[0, 0, 0]	n/a	0	0	0	n/a	n/a	0.0	0	0	0	catFR3	1	R1243T
626.847	0.884	633842	WORD_OFF	n/a	n/a	STOVE	n/a	10	0	5	[0, 0, 0]	n/a	0	0	0	n/a	n/a	0.0	0	0	0	catFR3	1	R1243T
627.731	1.6	634726	WORD	n/a	wordpools/wordpool.txt	LAMB	FarmAnimals	11	1	5	[0, 0, 0]	n/a	0	0	0	n/a	n/a	0.0	0	0	0	catFR3	1	R1243T
629.348	0.8	636343	WORD_OFF	n/a	n/a	LAMB	n/a	11	0	5	[0, 0, 0]	n/a	0	0	0	n/a	n/a	0.0	0	0	0	catFR3	1	R1243T
630.148	1.6	637143	WORD	n/a	wordpools/wordpool.txt	CALF	FarmAnimals	12	0	5	[0, 0, 0]	n/a	0	0	0	n/a	n/a	0.0	0	0	0	catFR3	1	R1243T
631.765	0.0	638760	WORD_OFF	n/a	n/a	CALF	n/a	12	0	5	[0, 0, 0]	n/a	0	0	0	n/a	n/a	0.0	0	0	0	catFR3	1	R1243T
631.765	0.082	638760	ENCODING_END	n/a	n/a	n/a	n/a	-999	0	5	[0, 0, 0]	n/a	0	0	0	n/a	n/a	0.0	0	0	0	catFR3	1	R1243T
631.847	0.0	638842	DISTRACT_START	n/a	n/a	n/a	n/a	-999	0	5	[0, 0, 0]	n/a	0	0	0	n/a	n/a	0.0	0	0	0	catFR3	1	R1243T
631.847	0.018	638842	START	n/a	n/a	n/a	n/a	-999	0	5	[-999, -999, -999]	n/a	0	0	0	n/a	n/a	0.0	0	0	0	catFR3	1	R1243T
631.865	5.534	638860	PROB	5.509	n/a	n/a	n/a	-999	0	5	[3, 9, 5]	17	0	0	0	n/a	n/a	0.0	0	0	0	catFR3	1	R1243T
637.399	5.018	644394	PROB	4.983	n/a	n/a	n/a	-999	0	5	[8, 3, 9]	20	0	0	0	n/a	n/a	0.0	0	0	0	catFR3	1	R1243T
642.417	9.821	649411	PROB	9.821	n/a	n/a	n/a	-999	0	5	[9, 9, 5]	23	0	0	0	n/a	n/a	0.0	0	0	0	catFR3	1	R1243T
652.238	0.014	659232	STOP	n/a	n/a	n/a	n/a	-999	0	5	[-999, -999, -999]	n/a	0	0	0	n/a	n/a	0.0	0	0	0	catFR3	1	R1243T
652.252	0.633	659246	DISTRACT_END	n/a	n/a	n/a	n/a	-999	0	5	[0, 0, 0]	n/a	0	0	0	n/a	n/a	0.0	0	0	0	catFR3	1	R1243T
652.885	0.5	659879	RETRIEVAL_ORIENT	n/a	n/a	n/a	n/a	-999	0	5	[0, 0, 0]	n/a	0	0	0	n/a	n/a	0.0	0	0	0	catFR3	1	R1243T
653.403	3.873	660397	REC_START	n/a	n/a	n/a	n/a	-999	0	5	[0, 0, 0]	n/a	0	0	0	n/a	n/a	0.0	0	0	0	catFR3	1	R1243T
657.276	1.001	664270	REC_WORD_VV	3.873	n/a	<>	n/a	-999	0	5	[0, 0, 0]	n/a	0	0	0	n/a	n/a	0.0	0	0	0	catFR3	1	R1243T
658.277	1.739	665271	REC_WORD	4.874	n/a	PIG	FarmAnimals	5	1	5	[0, 0, 0]	n/a	0	0	0	n/a	n/a	0.0	0	0	0	catFR3	1	R1243T
660.016	2.0	667009	REC_WORD	6.613	n/a	LAMB	FarmAnimals	11	1	5	[0, 0, 0]	n/a	0	0	0	n/a	n/a	0.0	0	0	0	catFR3	1	R1243T
662.016	2.112	669009	REC_WORD	8.613	n/a	REFRIGERATOR	Appliances	3	1	5	[0, 0, 0]	n/a	0	0	0	n/a	n/a	0.0	0	0	0	catFR3	1	R1243T
664.128	2.115	671121	REC_WORD	10.725	n/a	FREEZER	Appliances	9	1	5	[0, 0, 0]	n/a	0	0	0	n/a	n/a	0.0	0	0	0	catFR3	1	R1243T
666.243	17.172	673236	REC_WORD	12.84	n/a	FISH	OceanAnimals	7	1	5	[0, 0, 0]	n/a	0	0	0	n/a	n/a	0.0	0	0	0	catFR3	1	R1243T
683.415	6.51	690407	REC_END	n/a	n/a	n/a	n/a	-999	0	5	[0, 0, 0]	n/a	0	0	0	n/a	n/a	0.0	0	0	0	catFR3	1	R1243T
689.925	0.5	696917	TRIAL	n/a	n/a	n/a	n/a	-999	0	6	[0, 0, 0]	n/a	0	1	0	n/a	n/a	0.0	0	0	0	catFR3	1	R1243T
690.425	10.0	697417	COUNTDOWN_START	n/a	n/a	n/a	n/a	-999	0	6	[0, 0, 0]	n/a	0	1	0	n/a	n/a	0.0	0	0	0	catFR3	1	R1243T
700.853	0.008	707844	COUNTDOWN_END	n/a	n/a	n/a	n/a	-999	0	6	[0, 0, 0]	n/a	0	1	0	n/a	n/a	0.0	0	0	0	catFR3	1	R1243T
700.861	1.6	707852	ORIENT	n/a	n/a	n/a	n/a	-999	0	6	[0, 0, 0]	n/a	0	1	0	n/a	n/a	0.0	0	0	0	catFR3	1	R1243T
702.477	2.118	709468	ORIENT_OFF	n/a	n/a	n/a	n/a	-999	0	6	[0, 0, 0]	n/a	0	1	0	n/a	n/a	0.0	0	0	0	catFR3	1	R1243T
704.595	1.6	711586	WORD	n/a	wordpools/wordpool.txt	BALL	Toys	1	0	6	[0, 0, 0]	n/a	0	1	0	n/a	n/a	0.0	0	0	0	catFR3	1	R1243T
706.212	1.0	713203	WORD_OFF	n/a	n/a	BALL	n/a	1	0	6	[0, 0, 0]	n/a	0	1	0	n/a	n/a	0.0	0	0	0	catFR3	1	R1243T
707.212	1.6	714203	WORD	n/a	wordpools/wordpool.txt	DOLLHOUSE	Toys	2	0	6	[0, 0, 0]	n/a	0	1	0	n/a	n/a	0.0	0	0	0	catFR3	1	R1243T
708.829	0.9	715819	WORD_OFF	n/a	n/a	DOLLHOUSE	n/a	2	0	6	[0, 0, 0]	n/a	0	1	0	n/a	n/a	0.0	0	0	0	catFR3	1	R1243T
709.729	1.6	716719	WORD	n/a	wordpools/wordpool.txt	BANANA	Fruit	3	0	6	[0, 0, 0]	n/a	0	1	0	n/a	n/a	0.0	0	0	0	catFR3	1	R1243T
711.346	0.783	718336	WORD_OFF	n/a	n/a	BANANA	n/a	3	0	6	[0, 0, 0]	n/a	0	1	0	n/a	n/a	0.0	0	0	0	catFR3	1	R1243T
712.129	1.6	719119	WORD	n/a	wordpools/wordpool.txt	ORANGE	Fruit	4	1	6	[0, 0, 0]	n/a	0	1	0	n/a	n/a	0.0	0	0	0	catFR3	1	R1243T
712.292	0.5	719282	STIM_ON	n/a	n/a	ORANGE	n/a	4	1	6	[0, 0, 0]	n/a	1	1	500	LB8	LB9	1000.0	100	50	300	catFR3	1	R1243T
712.782	0.964	719772	STIM_OFF	n/a	n/a	n/a	n/a	4	0	6	[0, 0, 0]	n/a	0	1	500	LB8	LB9	1000.0	100	50	300	catFR3	1	R1243T
713.746	0.884	720736	WORD_OFF	n/a	n/a	ORANGE	n/a	4	0	6	[0, 0, 0]	n/a	0	1	0	n/a	n/a	0.0	0	0	0	catFR3	1	R1243T
714.63	1.6	721620	WORD	n/a	wordpools/wordpool.txt	ARM	BodyParts	5	0	6	[0, 0, 0]	n/a	0	1	0	n/a	n/a	0.0	0	0	0	catFR3	1	R1243T
716.247	0.917	723237	WORD_OFF	n/a	n/a	ARM	n/a	5	0	6	[0, 0, 0]	n/a	0	1	0	n/a	n/a	0.0	0	0	0	catFR3	1	R1243T
717.164	1.6	724154	WORD	n/a	wordpools/wordpool.txt	KNEE	BodyParts	6	0	6	[0, 0, 0]	n/a	0	1	0	n/a	n/a	0.0	0	0	0	catFR3	1	R1243T
718.781	0.983	725771	WORD_OFF	n/a	n/a	KNEE	n/a	6	0	6	[0, 0, 0]	n/a	0	1	0	n/a	n/a	0.0	0	0	0	catFR3	1	R1243T
719.764	1.6	726754	WORD	n/a	wordpools/wordpool.txt	FOOTBALL	Toys	7	0	6	[0, 0, 0]	n/a	0	1	0	n/a	n/a	0.0	0	0	0	catFR3	1	R1243T
721.381	0.8	728371	WORD_OFF	n/a	n/a	FOOTBALL	n/a	7	0	6	[0, 0, 0]	n/a	0	1	0	n/a	n/a	0.0	0	0	0	catFR3	1	R1243T
722.181	1.6	729171	WORD	n/a	wordpools/wordpool.txt	BARBIE	Toys	8	0	6	[0, 0, 0]	n/a	0	1	0	n/a	n/a	0.0	0	0	0	catFR3	1	R1243T
723.798	1.0	730788	WORD_OFF	n/a	n/a	BARBIE	n/a	8	0	6	[0, 0, 0]	n/a	0	1	0	n/a	n/a	0.0	0	0	0	catFR3	1	R1243T
724.798	1.6	731788	WORD	n/a	wordpools/wordpool.txt	BLUEBERRY	Fruit	9	1	6	[0, 0, 0]	n/a	0	1	0	n/a	n/a	0.0	0	0	0	catFR3	1	R1243T
724.955	0.5	731945	STIM_ON	n/a	n/a	BLUEBERRY	n/a	9	1	6	[0, 0, 0]	n/a	1	1	500	LB8	LB9	1000.0	100	50	300	catFR3	1	R1243T
725.445	0.97	732434	STIM_OFF	n/a	n/a	n/a	n/a	9	0	6	[0, 0, 0]	n/a	0	1	500	LB8	LB9	1000.0	100	50	300	catFR3	1	R1243T
726.415	0.834	733404	WORD_OFF	n/a	n/a	BLUEBERRY	n/a	9	0	6	[0, 0, 0]	n/a	0	1	0	n/a	n/a	0.0	0	0	0	catFR3	1	R1243T
727.249	1.6	734238	WORD	n/a	wordpools/wordpool.txt	PEAR	Fruit	10	0	6	[0, 0, 0]	n/a	0	1	0	n/a	n/a	0.0	0	0	0	catFR3	1	R1243T
728.866	0.967	735855	WORD_OFF	n/a	n/a	PEAR	n/a	10	0	6	[0, 0, 0]	n/a	0	1	0	n/a	n/a	0.0	0	0	0	catFR3	1	R1243T
729.833	1.6	736822	WORD	n/a	wordpools/wordpool.txt	LEG	BodyParts	11	1	6	[0, 0, 0]	n/a	0	1	0	n/a	n/a	0.0	0	0	0	catFR3	1	R1243T
731.45	0.983	738439	WORD_OFF	n/a	n/a	LEG	n/a	11	0	6	[0, 0, 0]	n/a	0	1	0	n/a	n/a	0.0	0	0	0	catFR3	1	R1243T
732.433	1.6	739422	WORD	n/a	wordpools/wordpool.txt	HEAD	BodyParts	12	1	6	[0, 0, 0]	n/a	0	1	0	n/a	n/a	0.0	0	0	0	catFR3	1	R1243T
734.05	0.0	741039	ENCODING_END	n/a	n/a	n/a	n/a	-999	0	6	[0, 0, 0]	n/a	0	1	0	n/a	n/a	0.0	0	0	0	catFR3	1	R1243T
734.05	0.08	741039	WORD_OFF	n/a	n/a	HEAD	n/a	12	0	6	[0, 0, 0]	n/a	0	1	0	n/a	n/a	0.0	0	0	0	catFR3	1	R1243T
734.13	0.0	741119	DISTRACT_START	n/a	n/a	n/a	n/a	-999	0	6	[0, 0, 0]	n/a	0	1	0	n/a	n/a	0.0	0	0	0	catFR3	1	R1243T
734.13	0.02	741119	START	n/a	n/a	n/a	n/a	-999	0	6	[-999, -999, -999]	n/a	0	1	0	n/a	n/a	0.0	0	0	0	catFR3	1	R1243T
734.15	4.551	741139	PROB	4.528	n/a	n/a	n/a	-999	0	6	[3, 4, 2]	9	0	1	0	n/a	n/a	0.0	0	0	0	catFR3	1	R1243T
738.701	6.518	745690	PROB	6.482	n/a	n/a	n/a	-999	0	6	[4, 7, 2]	13	0	1	0	n/a	n/a	0.0	0	0	0	catFR3	1	R1243T
745.219	4.601	752207	PROB	4.571	n/a	n/a	n/a	-999	0	6	[7, 4, 4]	15	0	1	0	n/a	n/a	0.0	0	0	0	catFR3	1	R1243T
749.82	5.259	756808	PROB	5.259	n/a	n/a	n/a	-999	0	6	[7, 3, 9]	19	0	1	0	n/a	n/a	0.0	0	0	0	catFR3	1	R1243T
755.079	0.008	762067	STOP	n/a	n/a	n/a	n/a	-999	0	6	[-999, -999, -999]	n/a	0	1	0	n/a	n/a	0.0	0	0	0	catFR3	1	R1243T
755.087	0.617	762075	DISTRACT_END	n/a	n/a	n/a	n/a	-999	0	6	[0, 0, 0]	n/a	0	1	0	n/a	n/a	0.0	0	0	0	catFR3	1	R1243T
755.704	0.5	762692	RETRIEVAL_ORIENT	n/a	n/a	n/a	n/a	-999	0	6	[0, 0, 0]	n/a	0	1	0	n/a	n/a	0.0	0	0	0	catFR3	1	R1243T
756.221	1.59	763209	REC_START	n/a	n/a	n/a	n/a	-999	0	6	[0, 0, 0]	n/a	0	1	0	n/a	n/a	0.0	0	0	0	catFR3	1	R1243T
757.811	1.307	764799	REC_WORD	1.59	n/a	LEG	BodyParts	11	1	6	[0, 0, 0]	n/a	0	1	0	n/a	n/a	0.0	0	0	0	catFR3	1	R1243T
759.118	3.596	766105	REC_WORD	2.897	n/a	LAMB	n/a	-999	0	6	[0, 0, 0]	n/a	0	1	0	n/a	n/a	0.0	0	0	0	catFR3	1	R1243T
762.714	3.767	769701	REC_WORD	6.493	n/a	BLUEBERRY	Fruit	9	1	6	[0, 0, 0]	n/a	0	1	0	n/a	n/a	0.0	0	0	0	catFR3	1	R1243T
766.481	2.239	773468	REC_WORD	10.26	n/a	PEACH	n/a	-999	0	6	[0, 0, 0]	n/a	0	1	0	n/a	n/a	0.0	0	0	0	catFR3	1	R1243T
768.72	7.232	775707	REC_WORD	12.499	n/a	ORANGE	Fruit	4	1	6	[0, 0, 0]	n/a	0	1	0	n/a	n/a	0.0	0	0	0	catFR3	1	R1243T
775.952	2.779	782938	REC_WORD	19.731	n/a	HEAD	BodyParts	12	1	6	[0, 0, 0]	n/a	0	1	0	n/a	n/a	0.0	0	0	0	catFR3	1	R1243T
778.731	7.503	785717	REC_WORD	22.51	n/a	FEET	n/a	-999	0	6	[0, 0, 0]	n/a	0	1	0	n/a	n/a	0.0	0	0	0	catFR3	1	R1243T
786.234	54.986	793220	REC_END	n/a	n/a	n/a	n/a	-999	0	6	[0, 0, 0]	n/a	0	1	0	n/a	n/a	0.0	0	0	0	catFR3	1	R1243T
841.22	0.5	848202	TRIAL	n/a	n/a	n/a	n/a	-999	0	7	[0, 0, 0]	n/a	0	1	0	n/a	n/a	0.0	0	0	0	catFR3	1	R1243T
841.72	10.0	848702	COUNTDOWN_START	n/a	n/a	n/a	n/a	-999	0	7	[0, 0, 0]	n/a	0	1	0	n/a	n/a	0.0	0	0	0	catFR3	1	R1243T
852.148	0.007	859130	COUNTDOWN_END	n/a	n/a	n/a	n/a	-999	0	7	[0, 0, 0]	n/a	0	1	0	n/a	n/a	0.0	0	0	0	catFR3	1	R1243T
852.155	1.6	859137	ORIENT	n/a	n/a	n/a	n/a	-999	0	7	[0, 0, 0]	n/a	0	1	0	n/a	n/a	0.0	0	0	0	catFR3	1	R1243T
853.772	2.234	860754	ORIENT_OFF	n/a	n/a	n/a	n/a	-999	0	7	[0, 0, 0]	n/a	0	1	0	n/a	n/a	0.0	0	0	0	catFR3	1	R1243T
856.006	1.6	862988	WORD	n/a	wordpools/wordpool.txt	PETUNIA	Flowers	1	1	7	[0, 0, 0]	n/a	0	1	0	n/a	n/a	0.0	0	0	0	catFR3	1	R1243T
857.623	0.766	864604	WORD_OFF	n/a	n/a	PETUNIA	n/a	1	0	7	[0, 0, 0]	n/a	0	1	0	n/a	n/a	0.0	0	0	0	catFR3	1	R1243T
858.389	1.6	865370	WORD	n/a	wordpools/wordpool.txt	LILAC	Flowers	2	0	7	[0, 0, 0]	n/a	0	1	0	n/a	n/a	0.0	0	0	0	catFR3	1	R1243T
860.006	0.934	866987	WORD_OFF	n/a	n/a	LILAC	n/a	2	0	7	[0, 0, 0]	n/a	0	1	0	n/a	n/a	0.0	0	0	0	catFR3	1	R1243T
860.94	1.6	867921	WORD	n/a	wordpools/wordpool.txt	GOAT	FarmAnimals	3	0	7	[0, 0, 0]	n/a	0	1	0	n/a	n/a	0.0	0	0	0	catFR3	1	R1243T
862.556	1.017	869537	WORD_OFF	n/a	n/a	GOAT	n/a	3	0	7	[0, 0, 0]	n/a	0	1	0	n/a	n/a	0.0	0	0	0	catFR3	1	R1243T
863.573	1.6	870554	WORD	n/a	wordpools/wordpool.txt	TURKEY	FarmAnimals	4	0	7	[0, 0, 0]	n/a	0	1	0	n/a	n/a	0.0	0	0	0	catFR3	1	R1243T
863.732	0.5	870713	STIM_ON	n/a	n/a	TURKEY	n/a	4	0	7	[0, 0, 0]	n/a	1	1	500	LB8	LB9	1000.0	100	50	300	catFR3	1	R1243T
864.222	0.969	871203	STIM_OFF	n/a	n/a	n/a	n/a	4	0	7	[0, 0, 0]	n/a	0	1	500	LB8	LB9	1000.0	100	50	300	catFR3	1	R1243T
865.191	0.833	872172	WORD_OFF	n/a	n/a	TURKEY	n/a	4	0	7	[0, 0, 0]	n/a	0	1	0	n/a	n/a	0.0	0	0	0	catFR3	1	R1243T
866.024	1.6	873005	WORD	n/a	wordpools/wordpool.txt	PLIERS	Tools	5	1	7	[0, 0, 0]	n/a	0	1	0	n/a	n/a	0.0	0	0	0	catFR3	1	R1243T
866.187	0.5	873168	STIM_ON	n/a	n/a	PLIERS	n/a	5	1	7	[0, 0, 0]	n/a	1	1	500	LB8	LB9	1000.0	100	50	300	catFR3	1	R1243T
866.677	0.964	873658	STIM_OFF	n/a	n/a	n/a	n/a	5	0	7	[0, 0, 0]	n/a	0	1	500	LB8	LB9	1000.0	100	50	300	catFR3	1	R1243T
867.641	0.849	874622	WORD_OFF	n/a	n/a	PLIERS	n/a	5	0	7	[0, 0, 0]	n/a	0	1	0	n/a	n/a	0.0	0	0	0	catFR3	1	R1243T
868.49	1.6	875471	WORD	n/a	wordpools/wordpool.txt	CROWBAR	Tools	6	1	7	[0, 0, 0]	n/a	0	1	0	n/a	n/a	0.0	0	0	0	catFR3	1	R1243T
870.108	0.784	877089	WORD_OFF	n/a	n/a	CROWBAR	n/a	6	0	7	[0, 0, 0]	n/a	0	1	0	n/a	n/a	0.0	0	0	0	catFR3	1	R1243T
870.892	1.6	877873	WORD	n/a	wordpools/wordpool.txt	ROOSTER	FarmAnimals	7	0	7	[0, 0, 0]	n/a	0	1	0	n/a	n/a	0.0	0	0	0	catFR3	1	R1243T
871.053	0.5	878034	STIM_ON	n/a	n/a	ROOSTER	n/a	7	0	7	[0, 0, 0]	n/a	1	1	500	LB8	LB9	1000.0	100	50	300	catFR3	1	R1243T
871.543	0.965	878524	STIM_OFF	n/a	n/a	n/a	n/a	7	0	7	[0, 0, 0]	n/a	0	1	500	LB8	LB9	1000.0	100	50	300	catFR3	1	R1243T
872.508	0.817	879489	WORD_OFF	n/a	n/a	ROOSTER	n/a	7	0	7	[0, 0, 0]	n/a	0	1	0	n/a	n/a	0.0	0	0	0	catFR3	1	R1243T
873.325	1.6	880306	WORD	n/a	wordpools/wordpool.txt	SHEEP	FarmAnimals	8	0	7	[0, 0, 0]	n/a	0	1	0	n/a	n/a	0.0	0	0	0	catFR3	1	R1243T
873.488	0.5	880469	STIM_ON	n/a	n/a	SHEEP	n/a	8	0	7	[0, 0, 0]	n/a	1	1	500	LB8	LB9	1000.0	100	50	300	catFR3	1	R1243T
873.978	0.964	880958	STIM_OFF	n/a	n/a	n/a	n/a	8	0	7	[0, 0, 0]	n/a	0	1	500	LB8	LB9	1000.0	100	50	300	catFR3	1	R1243T
874.942	0.884	881922	WORD_OFF	n/a	n/a	SHEEP	n/a	8	0	7	[0, 0, 0]	n/a	0	1	0	n/a	n/a	0.0	0	0	0	catFR3	1	R1243T
875.826	1.6	882806	WORD	n/a	wordpools/wordpool.txt	ORCHID	Flowers	9	0	7	[0, 0, 0]	n/a	0	1	0	n/a	n/a	0.0	0	0	0	catFR3	1	R1243T
875.985	0.5	882965	STIM_ON	n/a	n/a	ORCHID	n/a	9	0	7	[0, 0, 0]	n/a	1	1	500	LB8	LB9	1000.0	100	50	300	catFR3	1	R1243T
876.476	0.967	883456	STIM_OFF	n/a	n/a	n/a	n/a	9	0	7	[0, 0, 0]	n/a	0	1	500	LB8	LB9	1000.0	100	50	300	catFR3	1	R1243T
877.443	0.867	884423	WORD_OFF	n/a	n/a	ORCHID	n/a	9	0	7	[0, 0, 0]	n/a	0	1	0	n/a	n/a	0.0	0	0	0	catFR3	1	R1243T
878.31	1.6	885290	WORD	n/a	wordpools/wordpool.txt	DAFFODIL	Flowers	10	0	7	[0, 0, 0]	n/a	0	1	0	n/a	n/a	0.0	0	0	0	catFR3	1	R1243T
878.473	0.5	885453	STIM_ON	n/a	n/a	DAFFODIL	n/a	10	0	7	[0, 0, 0]	n/a	1	1	500	LB8	LB9	1000.0	100	50	300	catFR3	1	R1243T
878.963	0.964	885943	STIM_OFF	n/a	n/a	n/a	n/a	10	0	7	[0, 0, 0]	n/a	0	1	500	LB8	LB9	1000.0	100	50	300	catFR3	1	R1243T
879.927	0.817	886907	WORD_OFF	n/a	n/a	DAFFODIL	n/a	10	0	7	[0, 0, 0]	n/a	0	1	0	n/a	n/a	0.0	0	0	0	catFR3	1	R1243T
880.744	1.6	887724	WORD	n/a	wordpools/wordpool.txt	RATCHET	Tools	11	1	7	[0, 0, 0]	n/a	0	1	0	n/a	n/a	0.0	0	0	0	catFR3	1	R1243T
880.906	0.5	887886	STIM_ON	n/a	n/a	RATCHET	n/a	11	1	7	[0, 0, 0]	n/a	1	1	500	LB8	LB9	1000.0	100	50	300	catFR3	1	R1243T
881.396	0.964	888376	STIM_OFF	n/a	n/a	n/a	n/a	11	0	7	[0, 0, 0]	n/a	0	1	500	LB8	LB9	1000.0	100	50	300	catFR3	1	R1243T
882.36	1.001	889340	WORD_OFF	n/a	n/a	RATCHET	n/a	11	0	7	[0, 0, 0]	n/a	0	1	0	n/a	n/a	0.0	0	0	0	catFR3	1	R1243T
883.361	1.6	890341	WORD	n/a	wordpools/wordpool.txt	WRENCH	Tools	12	0	7	[0, 0, 0]	n/a	0	1	0	n/a	n/a	0.0	0	0	0	catFR3	1	R1243T
883.523	0.5	890503	STIM_ON	n/a	n/a	n/a	n/a	11	0	7	[0, 0, 0]	n/a	1	1	500	LB8	LB9	1000.0	100	50	300	catFR3	1	R1243T
884.013	0.965	890993	STIM_OFF	n/a	n/a	n/a	n/a	11	0	7	[0, 0, 0]	n/a	0	1	500	LB8	LB9	1000.0	100	50	300	catFR3	1	R1243T
884.978	0.0	891958	ENCODING_END	n/a	n/a	n/a	n/a	-999	0	7	[0, 0, 0]	n/a	0	1	0	n/a	n/a	0.0	0	0	0	catFR3	1	R1243T
884.978	0.08	891958	WORD_OFF	n/a	n/a	WRENCH	n/a	12	0	7	[0, 0, 0]	n/a	0	1	0	n/a	n/a	0.0	0	0	0	catFR3	1	R1243T
885.058	0.0	892038	DISTRACT_START	n/a	n/a	n/a	n/a	-999	0	7	[0, 0, 0]	n/a	0	1	0	n/a	n/a	0.0	0	0	0	catFR3	1	R1243T
885.058	0.02	892038	START	n/a	n/a	n/a	n/a	-999	0	7	[-999, -999, -999]	n/a	0	1	0	n/a	n/a	0.0	0	0	0	catFR3	1	R1243T
885.078	5.817	892058	PROB	5.785	n/a	n/a	n/a	-999	0	7	[6, 3, 3]	12	0	1	0	n/a	n/a	0.0	0	0	0	catFR3	1	R1243T
890.895	4.251	897874	PROB	4.224	n/a	n/a	n/a	-999	0	7	[6, 9, 4]	19	0	1	0	n/a	n/a	0.0	0	0	0	catFR3	1	R1243T
895.146	3.234	902125	PROB	3.206	n/a	n/a	n/a	-999	0	7	[1, 6, 1]	8	0	1	0	n/a	n/a	0.0	0	0	0	catFR3	1	R1243T
898.38	4.217	905359	PROB	4.178	n/a	n/a	n/a	-999	0	7	[9, 4, 1]	14	0	1	0	n/a	n/a	0.0	0	0	0	catFR3	1	R1243T
902.597	3.474	909576	PROB	3.474	n/a	n/a	n/a	-999	0	7	[4, 5, 3]	12	0	1	0	n/a	n/a	0.0	0	0	0	catFR3	1	R1243T
906.071	0.011	913050	STOP	n/a	n/a	n/a	n/a	-999	0	7	[-999, -999, -999]	n/a	0	1	0	n/a	n/a	0.0	0	0	0	catFR3	1	R1243T
906.082	0.583	913061	DISTRACT_END	n/a	n/a	n/a	n/a	-999	0	7	[0, 0, 0]	n/a	0	1	0	n/a	n/a	0.0	0	0	0	catFR3	1	R1243T
906.665	0.5	913644	RETRIEVAL_ORIENT	n/a	n/a	n/a	n/a	-999	0	7	[0, 0, 0]	n/a	0	1	0	n/a	n/a	0.0	0	0	0	catFR3	1	R1243T
907.182	1.195	914160	REC_START	n/a	n/a	n/a	n/a	-999	0	7	[0, 0, 0]	n/a	0	1	0	n/a	n/a	0.0	0	0	0	catFR3	1	R1243T
908.377	0.712	915355	REC_WORD_VV	1.195	n/a	<>	n/a	-999	0	7	[0, 0, 0]	n/a	0	1	0	n/a	n/a	0.0	0	0	0	catFR3	1	R1243T
909.089	1.382	916067	REC_WORD	1.907	n/a	PLIERS	Tools	5	1	7	[0, 0, 0]	n/a	0	1	0	n/a	n/a	0.0	0	0	0	catFR3	1	R1243T
910.471	3.058	917449	REC_WORD	3.289	n/a	CROWBAR	Tools	6	1	7	[0, 0, 0]	n/a	0	1	0	n/a	n/a	0.0	0	0	0	catFR3	1	R1243T
913.529	9.222	920507	REC_WORD	6.347	n/a	RATCHET	Tools	11	1	7	[0, 0, 0]	n/a	0	1	0	n/a	n/a	0.0	0	0	0	catFR3	1	R1243T
922.751	14.442	929729	REC_WORD	15.569	n/a	PETUNIA	Flowers	1	1	7	[0, 0, 0]	n/a	0	1	0	n/a	n/a	0.0	0	0	0	catFR3	1	R1243T
937.193	5.412	944170	REC_END	n/a	n/a	n/a	n/a	-999	0	7	[0, 0, 0]	n/a	0	1	0	n/a	n/a	0.0	0	0	0	catFR3	1	R1243T
942.605	0.5	949581	TRIAL	n/a	n/a	n/a	n/a	-999	0	8	[0, 0, 0]	n/a	0	1	0	n/a	n/a	0.0	0	0	0	catFR3	1	R1243T
943.105	10.0	950081	COUNTDOWN_START	n/a	n/a	n/a	n/a	-999	0	8	[0, 0, 0]	n/a	0	1	0	n/a	n/a	0.0	0	0	0	catFR3	1	R1243T
953.533	0.006	960509	COUNTDOWN_END	n/a	n/a	n/a	n/a	-999	0	8	[0, 0, 0]	n/a	0	1	0	n/a	n/a	0.0	0	0	0	catFR3	1	R1243T
953.539	1.6	960515	ORIENT	n/a	n/a	n/a	n/a	-999	0	8	[0, 0, 0]	n/a	0	1	0	n/a	n/a	0.0	0	0	0	catFR3	1	R1243T
955.157	2.1	962133	ORIENT_OFF	n/a	n/a	n/a	n/a	-999	0	8	[0, 0, 0]	n/a	0	1	0	n/a	n/a	0.0	0	0	0	catFR3	1	R1243T
957.257	1.6	964232	WORD	n/a	wordpools/wordpool.txt	BLOCKS	Toys	1	0	8	[0, 0, 0]	n/a	0	1	0	n/a	n/a	0.0	0	0	0	catFR3	1	R1243T
957.421	0.5	964396	STIM_ON	n/a	n/a	BLOCKS	n/a	1	0	8	[0, 0, 0]	n/a	1	1	500	LB8	LB9	1000.0	100	50	300	catFR3	1	R1243T
957.911	0.963	964886	STIM_OFF	n/a	n/a	n/a	n/a	1	0	8	[0, 0, 0]	n/a	0	1	500	LB8	LB9	1000.0	100	50	300	catFR3	1	R1243T
958.874	0.951	965849	WORD_OFF	n/a	n/a	BLOCKS	n/a	1	0	8	[0, 0, 0]	n/a	0	1	0	n/a	n/a	0.0	0	0	0	catFR3	1	R1243T
959.825	1.6	966800	WORD	n/a	wordpools/wordpool.txt	SLINKY	Toys	2	0	8	[0, 0, 0]	n/a	0	1	0	n/a	n/a	0.0	0	0	0	catFR3	1	R1243T
959.991	0.5	966966	STIM_ON	n/a	n/a	SLINKY	n/a	2	0	8	[0, 0, 0]	n/a	1	1	500	LB8	LB9	1000.0	100	50	300	catFR3	1	R1243T
960.481	0.961	967456	STIM_OFF	n/a	n/a	n/a	n/a	2	0	8	[0, 0, 0]	n/a	0	1	500	LB8	LB9	1000.0	100	50	300	catFR3	1	R1243T
961.442	0.866	968417	WORD_OFF	n/a	n/a	SLINKY	n/a	2	0	8	[0, 0, 0]	n/a	0	1	0	n/a	n/a	0.0	0	0	0	catFR3	1	R1243T
962.308	1.6	969283	WORD	n/a	wordpools/wordpool.txt	STREAM	Landscapes	3	1	8	[0, 0, 0]	n/a	0	1	0	n/a	n/a	0.0	0	0	0	catFR3	1	R1243T
962.472	0.5	969447	STIM_ON	n/a	n/a	STREAM	n/a	3	1	8	[0, 0, 0]	n/a	1	1	500	LB8	LB9	1000.0	100	50	300	catFR3	1	R1243T
962.962	0.963	969937	STIM_OFF	n/a	n/a	n/a	n/a	3	0	8	[0, 0, 0]	n/a	0	1	500	LB8	LB9	1000.0	100	50	300	catFR3	1	R1243T
963.925	0.8	970900	WORD_OFF	n/a	n/a	STREAM	n/a	3	0	8	[0, 0, 0]	n/a	0	1	0	n/a	n/a	0.0	0	0	0	catFR3	1	R1243T
964.725	1.6	971700	WORD	n/a	wordpools/wordpool.txt	OCEAN	Landscapes	4	0	8	[0, 0, 0]	n/a	0	1	0	n/a	n/a	0.0	0	0	0	catFR3	1	R1243T
966.342	0.934	973317	WORD_OFF	n/a	n/a	OCEAN	n/a	4	0	8	[0, 0, 0]	n/a	0	1	0	n/a	n/a	0.0	0	0	0	catFR3	1	R1243T
967.276	1.6	974251	WORD	n/a	wordpools/wordpool.txt	ELM	Trees	5	0	8	[0, 0, 0]	n/a	0	1	0	n/a	n/a	0.0	0	0	0	catFR3	1	R1243T
967.442	0.5	974417	STIM_ON	n/a	n/a	ELM	n/a	5	0	8	[0, 0, 0]	n/a	1	1	500	LB8	LB9	1000.0	100	50	300	catFR3	1	R1243T
967.932	0.961	974907	STIM_OFF	n/a	n/a	n/a	n/a	5	0	8	[0, 0, 0]	n/a	0	1	500	LB8	LB9	1000.0	100	50	300	catFR3	1	R1243T
968.893	0.883	975868	WORD_OFF	n/a	n/a	ELM	n/a	5	0	8	[0, 0, 0]	n/a	0	1	0	n/a	n/a	0.0	0	0	0	catFR3	1	R1243T
969.776	1.6	976751	WORD	n/a	wordpools/wordpool.txt	CYPRESS	Trees	6	0	8	[0, 0, 0]	n/a	0	1	0	n/a	n/a	0.0	0	0	0	catFR3	1	R1243T
969.942	0.5	976917	STIM_ON	n/a	n/a	CYPRESS	n/a	6	0	8	[0, 0, 0]	n/a	1	1	500	LB8	LB9	1000.0	100	50	300	catFR3	1	R1243T
970.432	0.961	977407	STIM_OFF	n/a	n/a	n/a	n/a	6	0	8	[0, 0, 0]	n/a	0	1	500	LB8	LB9	1000.0	100	50	300	catFR3	1	R1243T
971.393	0.851	978368	WORD_OFF	n/a	n/a	CYPRESS	n/a	6	0	8	[0, 0, 0]	n/a	0	1	0	n/a	n/a	0.0	0	0	0	catFR3	1	R1243T
972.244	1.6	979219	WORD	n/a	wordpools/wordpool.txt	CREEK	Landscapes	7	0	8	[0, 0, 0]	n/a	0	1	0	n/a	n/a	0.0	0	0	0	catFR3	1	R1243T
972.406	0.5	979381	STIM_ON	n/a	n/a	CREEK	n/a	7	0	8	[0, 0, 0]	n/a	1	1	500	LB8	LB9	1000.0	100	50	300	catFR3	1	R1243T
972.896	0.964	979870	STIM_OFF	n/a	n/a	n/a	n/a	7	0	8	[0, 0, 0]	n/a	0	1	500	LB8	LB9	1000.0	100	50	300	catFR3	1	R1243T
973.86	0.784	980834	WORD_OFF	n/a	n/a	CREEK	n/a	7	0	8	[0, 0, 0]	n/a	0	1	0	n/a	n/a	0.0	0	0	0	catFR3	1	R1243T
974.644	1.6	981618	WORD	n/a	wordpools/wordpool.txt	VALLEY	Landscapes	8	0	8	[0, 0, 0]	n/a	0	1	0	n/a	n/a	0.0	0	0	0	catFR3	1	R1243T
974.812	0.5	981786	STIM_ON	n/a	n/a	VALLEY	n/a	8	0	8	[0, 0, 0]	n/a	1	1	500	LB8	LB9	1000.0	100	50	300	catFR3	1	R1243T
975.302	0.959	982276	STIM_OFF	n/a	n/a	n/a	n/a	8	0	8	[0, 0, 0]	n/a	0	1	500	LB8	LB9	1000.0	100	50	300	catFR3	1	R1243T
976.261	0.766	983235	WORD_OFF	n/a	n/a	VALLEY	n/a	8	0	8	[0, 0, 0]	n/a	0	1	0	n/a	n/a	0.0	0	0	0	catFR3	1	R1243T
977.027	1.6	984001	WORD	n/a	wordpools/wordpool.txt	DOLL	Toys	9	0	8	[0, 0, 0]	n/a	0	1	0	n/a	n/a	0.0	0	0	0	catFR3	1	R1243T
977.198	0.5	984172	STIM_ON	n/a	n/a	DOLL	n/a	9	0	8	[0, 0, 0]	n/a	1	1	500	LB8	LB9	1000.0	100	50	300	catFR3	1	R1243T
977.688	0.957	984662	STIM_OFF	n/a	n/a	n/a	n/a	9	0	8	[0, 0, 0]	n/a	0	1	500	LB8	LB9	1000.0	100	50	300	catFR3	1	R1243T
978.645	0.783	985619	WORD_OFF	n/a	n/a	DOLL	n/a	9	0	8	[0, 0, 0]	n/a	0	1	0	n/a	n/a	0.0	0	0	0	catFR3	1	R1243T
979.428	1.6	986402	WORD	n/a	wordpools/wordpool.txt	BASEBALL	Toys	10	0	8	[0, 0, 0]	n/a	0	1	0	n/a	n/a	0.0	0	0	0	catFR3	1	R1243T
979.597	0.5	986571	STIM_ON	n/a	n/a	BASEBALL	n/a	10	0	8	[0, 0, 0]	n/a	1	1	500	LB8	LB9	1000.0	100	50	300	catFR3	1	R1243T
980.087	0.958	987061	STIM_OFF	n/a	n/a	n/a	n/a	10	0	8	[0, 0, 0]	n/a	0	1	500	LB8	LB9	1000.0	100	50	300	catFR3	1	R1243T
981.045	0.85	988019	WORD_OFF	n/a	n/a	BASEBALL	n/a	10	0	8	[0, 0, 0]	n/a	0	1	0	n/a	n/a	0.0	0	0	0	catFR3	1	R1243T
981.895	1.6	988869	WORD	n/a	wordpools/wordpool.txt	MAPLE	Trees	11	0	8	[0, 0, 0]	n/a	0	1	0	n/a	n/a	0.0	0	0	0	catFR3	1	R1243T
982.061	0.5	989035	STIM_ON	n/a	n/a	MAPLE	n/a	11	0	8	[0, 0, 0]	n/a	1	1	500	LB8	LB9	1000.0	100	50	300	catFR3	1	R1243T
982.551	0.96	989525	STIM_OFF	n/a	n/a	n/a	n/a	11	0	8	[0, 0, 0]	n/a	0	1	500	LB8	LB9	1000.0	100	50	300	catFR3	1	R1243T
983.511	0.785	990485	WORD_OFF	n/a	n/a	MAPLE	n/a	11	0	8	[0, 0, 0]	n/a	0	1	0	n/a	n/a	0.0	0	0	0	catFR3	1	R1243T
984.296	1.6	991270	WORD	n/a	wordpools/wordpool.txt	CEDAR	Trees	12	0	8	[0, 0, 0]	n/a	0	1	0	n/a	n/a	0.0	0	0	0	catFR3	1	R1243T
984.469	0.5	991443	STIM_ON	n/a	n/a	n/a	n/a	11	0	8	[0, 0, 0]	n/a	1	1	500	LB8	LB9	1000.0	100	50	300	catFR3	1	R1243T
984.959	0.954	991933	STIM_OFF	n/a	n/a	n/a	n/a	11	0	8	[0, 0, 0]	n/a	0	1	500	LB8	LB9	1000.0	100	50	300	catFR3	1	R1243T
985.913	0.0	992887	WORD_OFF	n/a	n/a	CEDAR	n/a	12	0	8	[0, 0, 0]	n/a	0	1	0	n/a	n/a	0.0	0	0	0	catFR3	1	R1243T
985.913	0.058	992887	ENCODING_END	n/a	n/a	n/a	n/a	-999	0	8	[0, 0, 0]	n/a	0	1	0	n/a	n/a	0.0	0	0	0	catFR3	1	R1243T
985.971	0.001	992945	DISTRACT_START	n/a	n/a	n/a	n/a	-999	0	8	[0, 0, 0]	n/a	0	1	0	n/a	n/a	0.0	0	0	0	catFR3	1	R1243T
985.972	0.007	992946	START	n/a	n/a	n/a	n/a	-999	0	8	[-999, -999, -999]	n/a	0	1	0	n/a	n/a	0.0	0	0	0	catFR3	1	R1243T
985.979	5.285	992953	PROB	5.252	n/a	n/a	n/a	-999	0	8	[8, 5, 3]	16	0	1	0	n/a	n/a	0.0	0	0	0	catFR3	1	R1243T
991.264	7.184	998237	PROB	7.15	n/a	n/a	n/a	-999	0	8	[6, 8, 9]	23	0	1	0	n/a	n/a	0.0	0	0	0	catFR3	1	R1243T
998.448	5.435	1005421	PROB	5.399	n/a	n/a	n/a	-999	0	8	[8, 7, 8]	23	0	1	0	n/a	n/a	0.0	0	0	0	catFR3	1	R1243T
1003.883	7.924	1010856	PROB	7.924	n/a	n/a	n/a	-999	0	8	[7, 5, 3]	15	0	1	0	n/a	n/a	0.0	0	0	0	catFR3	1	R1243T
1011.807	0.011	1018779	STOP	n/a	n/a	n/a	n/a	-999	0	8	[-999, -999, -999]	n/a	0	1	0	n/a	n/a	0.0	0	0	0	catFR3	1	R1243T
1011.818	0.715	1018790	DISTRACT_END	n/a	n/a	n/a	n/a	-999	0	8	[0, 0, 0]	n/a	0	1	0	n/a	n/a	0.0	0	0	0	catFR3	1	R1243T
1012.533	0.5	1019505	RETRIEVAL_ORIENT	n/a	n/a	n/a	n/a	-999	0	8	[0, 0, 0]	n/a	0	1	0	n/a	n/a	0.0	0	0	0	catFR3	1	R1243T
1013.052	14.331	1020024	REC_START	n/a	n/a	n/a	n/a	-999	0	8	[0, 0, 0]	n/a	0	1	0	n/a	n/a	0.0	0	0	0	catFR3	1	R1243T
1027.383	1.482	1034354	REC_WORD	14.331	n/a	LAKE	n/a	-999	0	8	[0, 0, 0]	n/a	0	1	0	n/a	n/a	0.0	0	0	0	catFR3	1	R1243T
1028.865	14.081	1035836	REC_WORD	15.813	n/a	STREAM	Landscapes	3	1	8	[0, 0, 0]	n/a	0	1	0	n/a	n/a	0.0	0	0	0	catFR3	1	R1243T
1042.946	0.116	1049916	REC_WORD_VV	29.894	n/a	<>	n/a	-999	0	8	[0, 0, 0]	n/a	0	1	0	n/a	n/a	0.0	0	0	0	catFR3	1	R1243T
1043.062	5.262	1050032	REC_END	n/a	n/a	n/a	n/a	-999	0	8	[0, 0, 0]	n/a	0	1	0	n/a	n/a	0.0	0	0	0	catFR3	1	R1243T
1048.324	0.5	1055294	TRIAL	n/a	n/a	n/a	n/a	-999	0	9	[0, 0, 0]	n/a	0	1	0	n/a	n/a	0.0	0	0	0	catFR3	1	R1243T
1048.824	10.0	1055794	COUNTDOWN_START	n/a	n/a	n/a	n/a	-999	0	9	[0, 0, 0]	n/a	0	1	0	n/a	n/a	0.0	0	0	0	catFR3	1	R1243T
1059.252	0.007	1066221	COUNTDOWN_END	n/a	n/a	n/a	n/a	-999	0	9	[0, 0, 0]	n/a	0	1	0	n/a	n/a	0.0	0	0	0	catFR3	1	R1243T
1059.259	1.6	1066228	ORIENT	n/a	n/a	n/a	n/a	-999	0	9	[0, 0, 0]	n/a	0	1	0	n/a	n/a	0.0	0	0	0	catFR3	1	R1243T
1060.876	2.184	1067845	ORIENT_OFF	n/a	n/a	n/a	n/a	-999	0	9	[0, 0, 0]	n/a	0	1	0	n/a	n/a	0.0	0	0	0	catFR3	1	R1243T
1063.06	1.6	1070029	WORD	n/a	wordpools/wordpool.txt	HAWK	Birds	1	0	9	[0, 0, 0]	n/a	0	1	0	n/a	n/a	0.0	0	0	0	catFR3	1	R1243T
1063.23	0.5	1070199	STIM_ON	n/a	n/a	HAWK	n/a	1	0	9	[0, 0, 0]	n/a	1	1	500	LB8	LB9	1000.0	100	50	300	catFR3	1	R1243T
1063.721	0.956	1070690	STIM_OFF	n/a	n/a	n/a	n/a	1	0	9	[0, 0, 0]	n/a	0	1	500	LB8	LB9	1000.0	100	50	300	catFR3	1	R1243T
1064.677	1.0	1071646	WORD_OFF	n/a	n/a	HAWK	n/a	1	0	9	[0, 0, 0]	n/a	0	1	0	n/a	n/a	0.0	0	0	0	catFR3	1	R1243T
1065.677	1.6	1072646	WORD	n/a	wordpools/wordpool.txt	BLUEBIRD	Birds	2	0	9	[0, 0, 0]	n/a	0	1	0	n/a	n/a	0.0	0	0	0	catFR3	1	R1243T
1065.85	0.5	1072819	STIM_ON	n/a	n/a	BLUEBIRD	n/a	2	0	9	[0, 0, 0]	n/a	1	1	500	LB8	LB9	1000.0	100	50	300	catFR3	1	R1243T
1066.34	0.954	1073309	STIM_OFF	n/a	n/a	n/a	n/a	2	0	9	[0, 0, 0]	n/a	0	1	500	LB8	LB9	1000.0	100	50	300	catFR3	1	R1243T
1067.294	0.9	1074263	WORD_OFF	n/a	n/a	BLUEBIRD	n/a	2	0	9	[0, 0, 0]	n/a	0	1	0	n/a	n/a	0.0	0	0	0	catFR3	1	R1243T
1068.194	1.6	1075163	WORD	n/a	wordpools/wordpool.txt	CORN	Vegetables	3	1	9	[0, 0, 0]	n/a	0	1	0	n/a	n/a	0.0	0	0	0	catFR3	1	R1243T
1068.366	0.5	1075335	STIM_ON	n/a	n/a	CORN	n/a	3	1	9	[0, 0, 0]	n/a	1	1	500	LB8	LB9	1000.0	100	50	300	catFR3	1	R1243T
1068.856	0.955	1075825	STIM_OFF	n/a	n/a	n/a	n/a	3	0	9	[0, 0, 0]	n/a	0	1	500	LB8	LB9	1000.0	100	50	300	catFR3	1	R1243T
1069.811	0.784	1076780	WORD_OFF	n/a	n/a	CORN	n/a	3	0	9	[0, 0, 0]	n/a	0	1	0	n/a	n/a	0.0	0	0	0	catFR3	1	R1243T
1070.595	1.6	1077564	WORD	n/a	wordpools/wordpool.txt	POTATO	Vegetables	4	1	9	[0, 0, 0]	n/a	0	1	0	n/a	n/a	0.0	0	0	0	catFR3	1	R1243T
1070.767	0.5	1077736	STIM_ON	n/a	n/a	POTATO	n/a	4	1	9	[0, 0, 0]	n/a	1	1	500	LB8	LB9	1000.0	100	50	300	catFR3	1	R1243T
1071.257	0.955	1078226	STIM_OFF	n/a	n/a	n/a	n/a	4	0	9	[0, 0, 0]	n/a	0	1	500	LB8	LB9	1000.0	100	50	300	catFR3	1	R1243T
1072.212	0.766	1079180	WORD_OFF	n/a	n/a	POTATO	n/a	4	0	9	[0, 0, 0]	n/a	0	1	0	n/a	n/a	0.0	0	0	0	catFR3	1	R1243T
1072.978	1.6	1079946	WORD	n/a	wordpools/wordpool.txt	LILY	Flowers	5	1	9	[0, 0, 0]	n/a	0	1	0	n/a	n/a	0.0	0	0	0	catFR3	1	R1243T
1073.15	0.5	1080118	STIM_ON	n/a	n/a	LILY	n/a	5	1	9	[0, 0, 0]	n/a	1	1	500	LB8	LB9	1000.0	100	50	300	catFR3	1	R1243T
1073.64	0.955	1080608	STIM_OFF	n/a	n/a	n/a	n/a	5	0	9	[0, 0, 0]	n/a	0	1	500	LB8	LB9	1000.0	100	50	300	catFR3	1	R1243T
1074.595	0.95	1081563	WORD_OFF	n/a	n/a	LILY	n/a	5	0	9	[0, 0, 0]	n/a	0	1	0	n/a	n/a	0.0	0	0	0	catFR3	1	R1243T
1075.545	1.6	1082513	WORD	n/a	wordpools/wordpool.txt	VIOLET	Flowers	6	0	9	[0, 0, 0]	n/a	0	1	0	n/a	n/a	0.0	0	0	0	catFR3	1	R1243T
1077.163	0.9	1084131	WORD_OFF	n/a	n/a	VIOLET	n/a	6	0	9	[0, 0, 0]	n/a	0	1	0	n/a	n/a	0.0	0	0	0	catFR3	1	R1243T
1078.063	1.6	1085031	WORD	n/a	wordpools/wordpool.txt	CARROT	Vegetables	7	0	9	[0, 0, 0]	n/a	0	1	0	n/a	n/a	0.0	0	0	0	catFR3	1	R1243T
1078.234	0.5	1085202	STIM_ON	n/a	n/a	CARROT	n/a	7	0	9	[0, 0, 0]	n/a	1	1	500	LB8	LB9	1000.0	100	50	300	catFR3	1	R1243T
1078.724	0.956	1085692	STIM_OFF	n/a	n/a	n/a	n/a	7	0	9	[0, 0, 0]	n/a	0	1	500	LB8	LB9	1000.0	100	50	300	catFR3	1	R1243T
1079.68	0.882	1086648	WORD_OFF	n/a	n/a	CARROT	n/a	7	0	9	[0, 0, 0]	n/a	0	1	0	n/a	n/a	0.0	0	0	0	catFR3	1	R1243T
1080.562	1.6	1087530	WORD	n/a	wordpools/wordpool.txt	LETTUCE	Vegetables	8	0	9	[0, 0, 0]	n/a	0	1	0	n/a	n/a	0.0	0	0	0	catFR3	1	R1243T
1080.734	0.5	1087702	STIM_ON	n/a	n/a	LETTUCE	n/a	8	0	9	[0, 0, 0]	n/a	1	1	500	LB8	LB9	1000.0	100	50	300	catFR3	1	R1243T
1081.224	0.956	1088192	STIM_OFF	n/a	n/a	n/a	n/a	8	0	9	[0, 0, 0]	n/a	0	1	500	LB8	LB9	1000.0	100	50	300	catFR3	1	R1243T
1082.18	0.85	1089148	WORD_OFF	n/a	n/a	LETTUCE	n/a	8	0	9	[0, 0, 0]	n/a	0	1	0	n/a	n/a	0.0	0	0	0	catFR3	1	R1243T
1083.03	1.6	1089998	WORD	n/a	wordpools/wordpool.txt	CROW	Birds	9	0	9	[0, 0, 0]	n/a	0	1	0	n/a	n/a	0.0	0	0	0	catFR3	1	R1243T
1083.206	0.5	1090174	STIM_ON	n/a	n/a	CROW	n/a	9	0	9	[0, 0, 0]	n/a	1	1	500	LB8	LB9	1000.0	100	50	300	catFR3	1	R1243T
1083.696	0.951	1090664	STIM_OFF	n/a	n/a	n/a	n/a	9	0	9	[0, 0, 0]	n/a	0	1	500	LB8	LB9	1000.0	100	50	300	catFR3	1	R1243T
1084.647	0.833	1091615	WORD_OFF	n/a	n/a	CROW	n/a	9	0	9	[0, 0, 0]	n/a	0	1	0	n/a	n/a	0.0	0	0	0	catFR3	1	R1243T
1085.48	1.6	1092448	WORD	n/a	wordpools/wordpool.txt	ROBIN	Birds	10	0	9	[0, 0, 0]	n/a	0	1	0	n/a	n/a	0.0	0	0	0	catFR3	1	R1243T
1085.661	0.5	1092629	STIM_ON	n/a	n/a	ROBIN	n/a	10	0	9	[0, 0, 0]	n/a	1	1	500	LB8	LB9	1000.0	100	50	300	catFR3	1	R1243T
1086.151	0.947	1093119	STIM_OFF	n/a	n/a	n/a	n/a	10	0	9	[0, 0, 0]	n/a	0	1	500	LB8	LB9	1000.0	100	50	300	catFR3	1	R1243T
1087.098	0.867	1094066	WORD_OFF	n/a	n/a	ROBIN	n/a	10	0	9	[0, 0, 0]	n/a	0	1	0	n/a	n/a	0.0	0	0	0	catFR3	1	R1243T
1087.965	1.6	1094933	WORD	n/a	wordpools/wordpool.txt	MARIGOLD	Flowers	11	0	9	[0, 0, 0]	n/a	0	1	0	n/a	n/a	0.0	0	0	0	catFR3	1	R1243T
1089.581	0.884	1096548	WORD_OFF	n/a	n/a	MARIGOLD	n/a	11	0	9	[0, 0, 0]	n/a	0	1	0	n/a	n/a	0.0	0	0	0	catFR3	1	R1243T
1090.465	1.6	1097432	WORD	n/a	wordpools/wordpool.txt	CARNATION	Flowers	12	1	9	[0, 0, 0]	n/a	0	1	0	n/a	n/a	0.0	0	0	0	catFR3	1	R1243T
1090.641	0.5	1097608	STIM_ON	n/a	n/a	n/a	n/a	11	0	9	[0, 0, 0]	n/a	1	1	500	LB8	LB9	1000.0	100	50	300	catFR3	1	R1243T
1091.131	0.951	1098098	STIM_OFF	n/a	n/a	n/a	n/a	11	0	9	[0, 0, 0]	n/a	0	1	500	LB8	LB9	1000.0	100	50	300	catFR3	1	R1243T
1092.082	0.0	1099049	WORD_OFF	n/a	n/a	CARNATION	n/a	12	0	9	[0, 0, 0]	n/a	0	1	0	n/a	n/a	0.0	0	0	0	catFR3	1	R1243T
1092.082	0.06	1099049	ENCODING_END	n/a	n/a	n/a	n/a	-999	0	9	[0, 0, 0]	n/a	0	1	0	n/a	n/a	0.0	0	0	0	catFR3	1	R1243T
1092.142	0.0	1099109	DISTRACT_START	n/a	n/a	n/a	n/a	-999	0	9	[0, 0, 0]	n/a	0	1	0	n/a	n/a	0.0	0	0	0	catFR3	1	R1243T
1092.142	0.023	1099109	START	n/a	n/a	n/a	n/a	-999	0	9	[-999, -999, -999]	n/a	0	1	0	n/a	n/a	0.0	0	0	0	catFR3	1	R1243T
1092.165	6.135	1099132	PROB	6.106	n/a	n/a	n/a	-999	0	9	[5, 9, 3]	17	0	1	0	n/a	n/a	0.0	0	0	0	catFR3	1	R1243T
1098.3	5.434	1105267	PROB	5.403	n/a	n/a	n/a	-999	0	9	[6, 4, 8]	18	0	1	0	n/a	n/a	0.0	0	0	0	catFR3	1	R1243T
1103.734	3.951	1110701	PROB	3.929	n/a	n/a	n/a	-999	0	9	[5, 9, 9]	23	0	1	0	n/a	n/a	0.0	0	0	0	catFR3	1	R1243T
1107.685	3.784	1114651	PROB	3.753	n/a	n/a	n/a	-999	0	9	[2, 7, 6]	15	0	1	0	n/a	n/a	0.0	0	0	0	catFR3	1	R1243T
1111.469	4.778	1118435	PROB	4.778	n/a	n/a	n/a	-999	0	9	[4, 4, 6]	14	0	1	0	n/a	n/a	0.0	0	0	0	catFR3	1	R1243T
1116.247	0.006	1123213	STOP	n/a	n/a	n/a	n/a	-999	0	9	[-999, -999, -999]	n/a	0	1	0	n/a	n/a	0.0	0	0	0	catFR3	1	R1243T
1116.253	0.617	1123219	DISTRACT_END	n/a	n/a	n/a	n/a	-999	0	9	[0, 0, 0]	n/a	0	1	0	n/a	n/a	0.0	0	0	0	catFR3	1	R1243T
1116.87	0.5	1123836	RETRIEVAL_ORIENT	n/a	n/a	n/a	n/a	-999	0	9	[0, 0, 0]	n/a	0	1	0	n/a	n/a	0.0	0	0	0	catFR3	1	R1243T
1117.387	1.498	1124353	REC_START	n/a	n/a	n/a	n/a	-999	0	9	[0, 0, 0]	n/a	0	1	0	n/a	n/a	0.0	0	0	0	catFR3	1	R1243T
1118.885	0.716	1125851	REC_WORD	1.498	n/a	POTATO	Vegetables	4	1	9	[0, 0, 0]	n/a	0	1	0	n/a	n/a	0.0	0	0	0	catFR3	1	R1243T
1119.601	0.892	1126567	REC_WORD	2.214	n/a	CORN	Vegetables	3	1	9	[0, 0, 0]	n/a	0	1	0	n/a	n/a	0.0	0	0	0	catFR3	1	R1243T
1120.493	1.289	1127459	REC_WORD	3.106	n/a	CARNATION	Flowers	12	1	9	[0, 0, 0]	n/a	0	1	0	n/a	n/a	0.0	0	0	0	catFR3	1	R1243T
1121.782	25.618	1128747	REC_WORD	4.395	n/a	LILY	Flowers	5	1	9	[0, 0, 0]	n/a	0	1	0	n/a	n/a	0.0	0	0	0	catFR3	1	R1243T
1147.4	5.243	1154364	REC_END	n/a	n/a	n/a	n/a	-999	0	9	[0, 0, 0]	n/a	0	1	0	n/a	n/a	0.0	0	0	0	catFR3	1	R1243T
1152.643	0.5	1159607	TRIAL	n/a	n/a	n/a	n/a	-999	0	10	[0, 0, 0]	n/a	0	0	0	n/a	n/a	0.0	0	0	0	catFR3	1	R1243T
1153.143	10.0	1160107	COUNTDOWN_START	n/a	n/a	n/a	n/a	-999	0	10	[0, 0, 0]	n/a	0	0	0	n/a	n/a	0.0	0	0	0	catFR3	1	R1243T
1163.571	0.006	1170534	COUNTDOWN_END	n/a	n/a	n/a	n/a	-999	0	10	[0, 0, 0]	n/a	0	0	0	n/a	n/a	0.0	0	0	0	catFR3	1	R1243T
1163.577	1.6	1170540	ORIENT	n/a	n/a	n/a	n/a	-999	0	10	[0, 0, 0]	n/a	0	0	0	n/a	n/a	0.0	0	0	0	catFR3	1	R1243T
1165.195	2.051	1172158	ORIENT_OFF	n/a	n/a	n/a	n/a	-999	0	10	[0, 0, 0]	n/a	0	0	0	n/a	n/a	0.0	0	0	0	catFR3	1	R1243T
1167.246	1.6	1174209	WORD	n/a	wordpools/wordpool.txt	COLANDER	KitchenTools	1	0	10	[0, 0, 0]	n/a	0	0	0	n/a	n/a	0.0	0	0	0	catFR3	1	R1243T
1168.863	0.95	1175826	WORD_OFF	n/a	n/a	COLANDER	n/a	1	0	10	[0, 0, 0]	n/a	0	0	0	n/a	n/a	0.0	0	0	0	catFR3	1	R1243T
1169.813	1.6	1176776	WORD	n/a	wordpools/wordpool.txt	GRATER	KitchenTools	2	0	10	[0, 0, 0]	n/a	0	0	0	n/a	n/a	0.0	0	0	0	catFR3	1	R1243T
1171.43	0.883	1178392	WORD_OFF	n/a	n/a	GRATER	n/a	2	0	10	[0, 0, 0]	n/a	0	0	0	n/a	n/a	0.0	0	0	0	catFR3	1	R1243T
1172.313	1.6	1179275	WORD	n/a	wordpools/wordpool.txt	COMPUTER	Electronics	3	0	10	[0, 0, 0]	n/a	0	0	0	n/a	n/a	0.0	0	0	0	catFR3	1	R1243T
1173.93	0.884	1180892	WORD_OFF	n/a	n/a	COMPUTER	n/a	3	0	10	[0, 0, 0]	n/a	0	0	0	n/a	n/a	0.0	0	0	0	catFR3	1	R1243T
1174.814	1.6	1181776	WORD	n/a	wordpools/wordpool.txt	MICROWAVE	Electronics	4	0	10	[0, 0, 0]	n/a	0	0	0	n/a	n/a	0.0	0	0	0	catFR3	1	R1243T
1176.431	0.967	1183393	WORD_OFF	n/a	n/a	MICROWAVE	n/a	4	0	10	[0, 0, 0]	n/a	0	0	0	n/a	n/a	0.0	0	0	0	catFR3	1	R1243T
1177.398	1.6	1184360	WORD	n/a	wordpools/wordpool.txt	PLANKTON	OceanAnimals	5	0	10	[0, 0, 0]	n/a	0	0	0	n/a	n/a	0.0	0	0	0	catFR3	1	R1243T
1179.014	0.967	1185976	WORD_OFF	n/a	n/a	PLANKTON	n/a	5	0	10	[0, 0, 0]	n/a	0	0	0	n/a	n/a	0.0	0	0	0	catFR3	1	R1243T
1179.981	1.6	1186943	WORD	n/a	wordpools/wordpool.txt	JELLYFISH	OceanAnimals	6	1	10	[0, 0, 0]	n/a	0	0	0	n/a	n/a	0.0	0	0	0	catFR3	1	R1243T
1181.598	1.0	1188560	WORD_OFF	n/a	n/a	JELLYFISH	n/a	6	0	10	[0, 0, 0]	n/a	0	0	0	n/a	n/a	0.0	0	0	0	catFR3	1	R1243T
1182.598	1.6	1189560	WORD	n/a	wordpools/wordpool.txt	TABLET	Electronics	7	0	10	[0, 0, 0]	n/a	0	0	0	n/a	n/a	0.0	0	0	0	catFR3	1	R1243T
1184.215	0.801	1191177	WORD_OFF	n/a	n/a	TABLET	n/a	7	0	10	[0, 0, 0]	n/a	0	0	0	n/a	n/a	0.0	0	0	0	catFR3	1	R1243T
1185.016	1.6	1191978	WORD	n/a	wordpools/wordpool.txt	CALCULATOR	Electronics	8	0	10	[0, 0, 0]	n/a	0	0	0	n/a	n/a	0.0	0	0	0	catFR3	1	R1243T
1186.633	0.849	1193595	WORD_OFF	n/a	n/a	CALCULATOR	n/a	8	0	10	[0, 0, 0]	n/a	0	0	0	n/a	n/a	0.0	0	0	0	catFR3	1	R1243T
1187.482	1.6	1194444	WORD	n/a	wordpools/wordpool.txt	SPATULA	KitchenTools	9	0	10	[0, 0, 0]	n/a	0	0	0	n/a	n/a	0.0	0	0	0	catFR3	1	R1243T
1189.1	0.866	1196061	WORD_OFF	n/a	n/a	SPATULA	n/a	9	0	10	[0, 0, 0]	n/a	0	0	0	n/a	n/a	0.0	0	0	0	catFR3	1	R1243T
1189.966	1.6	1196927	WORD	n/a	wordpools/wordpool.txt	FORK	KitchenTools	10	0	10	[0, 0, 0]	n/a	0	0	0	n/a	n/a	0.0	0	0	0	catFR3	1	R1243T
1191.583	0.916	1198544	WORD_OFF	n/a	n/a	FORK	n/a	10	0	10	[0, 0, 0]	n/a	0	0	0	n/a	n/a	0.0	0	0	0	catFR3	1	R1243T
1192.499	1.6	1199460	WORD	n/a	wordpools/wordpool.txt	LOBSTER	OceanAnimals	11	0	10	[0, 0, 0]	n/a	0	0	0	n/a	n/a	0.0	0	0	0	catFR3	1	R1243T
1194.117	0.884	1201078	WORD_OFF	n/a	n/a	LOBSTER	n/a	11	0	10	[0, 0, 0]	n/a	0	0	0	n/a	n/a	0.0	0	0	0	catFR3	1	R1243T
1195.001	1.6	1201962	WORD	n/a	wordpools/wordpool.txt	OCTOPUS	OceanAnimals	12	1	10	[0, 0, 0]	n/a	0	0	0	n/a	n/a	0.0	0	0	0	catFR3	1	R1243T
1196.618	0.0	1203579	WORD_OFF	n/a	n/a	OCTOPUS	n/a	12	0	10	[0, 0, 0]	n/a	0	0	0	n/a	n/a	0.0	0	0	0	catFR3	1	R1243T
1196.618	0.058	1203579	ENCODING_END	n/a	n/a	n/a	n/a	-999	0	10	[0, 0, 0]	n/a	0	0	0	n/a	n/a	0.0	0	0	0	catFR3	1	R1243T
1196.676	0.0	1203637	DISTRACT_START	n/a	n/a	n/a	n/a	-999	0	10	[0, 0, 0]	n/a	0	0	0	n/a	n/a	0.0	0	0	0	catFR3	1	R1243T
1196.676	0.008	1203637	START	n/a	n/a	n/a	n/a	-999	0	10	[-999, -999, -999]	n/a	0	0	0	n/a	n/a	0.0	0	0	0	catFR3	1	R1243T
1196.684	5.085	1203645	PROB	5.058	n/a	n/a	n/a	-999	0	10	[1, 9, 1]	11	0	0	0	n/a	n/a	0.0	0	0	0	catFR3	1	R1243T
1201.769	4.1	1208730	PROB	4.063	n/a	n/a	n/a	-999	0	10	[9, 2, 2]	13	0	0	0	n/a	n/a	0.0	0	0	0	catFR3	1	R1243T
1205.869	5.535	1212829	PROB	5.497	n/a	n/a	n/a	-999	0	10	[8, 9, 9]	24	0	0	0	n/a	n/a	0.0	0	0	0	catFR3	1	R1243T
1211.404	4.601	1218364	PROB	4.571	n/a	n/a	n/a	-999	0	10	[7, 1, 8]	16	0	0	0	n/a	n/a	0.0	0	0	0	catFR3	1	R1243T
1216.005	4.226	1222965	PROB	4.226	n/a	n/a	n/a	-999	0	10	[8, 7, 3]	18	0	0	0	n/a	n/a	0.0	0	0	0	catFR3	1	R1243T
1220.231	0.008	1227191	STOP	n/a	n/a	n/a	n/a	-999	0	10	[-999, -999, -999]	n/a	0	0	0	n/a	n/a	0.0	0	0	0	catFR3	1	R1243T
1220.239	0.666	1227199	DISTRACT_END	n/a	n/a	n/a	n/a	-999	0	10	[0, 0, 0]	n/a	0	0	0	n/a	n/a	0.0	0	0	0	catFR3	1	R1243T
1220.905	0.5	1227864	RETRIEVAL_ORIENT	n/a	n/a	n/a	n/a	-999	0	10	[0, 0, 0]	n/a	0	0	0	n/a	n/a	0.0	0	0	0	catFR3	1	R1243T
1221.423	1.327	1228382	REC_START	n/a	n/a	n/a	n/a	-999	0	10	[0, 0, 0]	n/a	0	0	0	n/a	n/a	0.0	0	0	0	catFR3	1	R1243T
1222.75	1.039	1229709	REC_WORD	1.327	n/a	JELLYFISH	OceanAnimals	6	1	10	[0, 0, 0]	n/a	0	0	0	n/a	n/a	0.0	0	0	0	catFR3	1	R1243T
1223.789	4.686	1230748	REC_WORD	2.366	n/a	OCTOPUS	OceanAnimals	12	1	10	[0, 0, 0]	n/a	0	0	0	n/a	n/a	0.0	0	0	0	catFR3	1	R1243T
1228.475	1.079	1235434	REC_WORD	7.052	n/a	REFRIGERATOR	n/a	-999	0	10	[0, 0, 0]	n/a	0	0	0	n/a	n/a	0.0	0	0	0	catFR3	1	R1243T
1229.554	8.725	1236513	REC_WORD	8.131	n/a	FREEZER	n/a	-999	0	10	[0, 0, 0]	n/a	0	0	0	n/a	n/a	0.0	0	0	0	catFR3	1	R1243T
1238.279	11.062	1245237	REC_WORD	16.856	n/a	LAKE	n/a	-999	0	10	[0, 0, 0]	n/a	0	0	0	n/a	n/a	0.0	0	0	0	catFR3	1	R1243T
1249.341	2.093	1256299	REC_WORD	27.918	n/a	CAR	n/a	-999	0	10	[0, 0, 0]	n/a	0	0	0	n/a	n/a	0.0	0	0	0	catFR3	1	R1243T
1251.434	5.345	1258392	REC_END	n/a	n/a	n/a	n/a	-999	0	10	[0, 0, 0]	n/a	0	0	0	n/a	n/a	0.0	0	0	0	catFR3	1	R1243T
1256.779	0.5	1263736	TRIAL	n/a	n/a	n/a	n/a	-999	0	11	[0, 0, 0]	n/a	0	0	0	n/a	n/a	0.0	0	0	0	catFR3	1	R1243T
1257.279	10.0	1264236	COUNTDOWN_START	n/a	n/a	n/a	n/a	-999	0	11	[0, 0, 0]	n/a	0	0	0	n/a	n/a	0.0	0	0	0	catFR3	1	R1243T
1267.707	0.007	1274664	COUNTDOWN_END	n/a	n/a	n/a	n/a	-999	0	11	[0, 0, 0]	n/a	0	0	0	n/a	n/a	0.0	0	0	0	catFR3	1	R1243T
1267.714	1.6	1274671	ORIENT	n/a	n/a	n/a	n/a	-999	0	11	[0, 0, 0]	n/a	0	0	0	n/a	n/a	0.0	0	0	0	catFR3	1	R1243T
1269.331	2.166	1276288	ORIENT_OFF	n/a	n/a	n/a	n/a	-999	0	11	[0, 0, 0]	n/a	0	0	0	n/a	n/a	0.0	0	0	0	catFR3	1	R1243T
1271.497	1.6	1278453	WORD	n/a	wordpools/wordpool.txt	COW	FarmAnimals	1	0	11	[0, 0, 0]	n/a	0	0	0	n/a	n/a	0.0	0	0	0	catFR3	1	R1243T
1273.098	0.85	1280054	WORD_OFF	n/a	n/a	COW	n/a	1	0	11	[0, 0, 0]	n/a	0	0	0	n/a	n/a	0.0	0	0	0	catFR3	1	R1243T
1273.948	1.6	1280904	WORD	n/a	wordpools/wordpool.txt	CHICKEN	FarmAnimals	2	0	11	[0, 0, 0]	n/a	0	0	0	n/a	n/a	0.0	0	0	0	catFR3	1	R1243T
1275.564	1.001	1282520	WORD_OFF	n/a	n/a	CHICKEN	n/a	2	0	11	[0, 0, 0]	n/a	0	0	0	n/a	n/a	0.0	0	0	0	catFR3	1	R1243T
1276.565	1.6	1283521	WORD	n/a	wordpools/wordpool.txt	RADIO	Electronics	3	0	11	[0, 0, 0]	n/a	0	0	0	n/a	n/a	0.0	0	0	0	catFR3	1	R1243T
1278.183	1.0	1285139	WORD_OFF	n/a	n/a	RADIO	n/a	3	0	11	[0, 0, 0]	n/a	0	0	0	n/a	n/a	0.0	0	0	0	catFR3	1	R1243T
1279.183	1.6	1286139	WORD	n/a	wordpools/wordpool.txt	PHONE	Electronics	4	0	11	[0, 0, 0]	n/a	0	0	0	n/a	n/a	0.0	0	0	0	catFR3	1	R1243T
1280.8	0.8	1287756	WORD_OFF	n/a	n/a	PHONE	n/a	4	0	11	[0, 0, 0]	n/a	0	0	0	n/a	n/a	0.0	0	0	0	catFR3	1	R1243T
1281.6	1.6	1288556	WORD	n/a	wordpools/wordpool.txt	TEA	Beverages	5	0	11	[0, 0, 0]	n/a	0	0	0	n/a	n/a	0.0	0	0	0	catFR3	1	R1243T
1283.217	0.833	1290173	WORD_OFF	n/a	n/a	TEA	n/a	5	0	11	[0, 0, 0]	n/a	0	0	0	n/a	n/a	0.0	0	0	0	catFR3	1	R1243T
1284.05	1.6	1291006	WORD	n/a	wordpools/wordpool.txt	COLA	Beverages	6	0	11	[0, 0, 0]	n/a	0	0	0	n/a	n/a	0.0	0	0	0	catFR3	1	R1243T
1285.667	0.984	1292623	WORD_OFF	n/a	n/a	COLA	n/a	6	0	11	[0, 0, 0]	n/a	0	0	0	n/a	n/a	0.0	0	0	0	catFR3	1	R1243T
1286.651	1.6	1293607	WORD	n/a	wordpools/wordpool.txt	HEN	FarmAnimals	7	1	11	[0, 0, 0]	n/a	0	0	0	n/a	n/a	0.0	0	0	0	catFR3	1	R1243T
1288.268	0.95	1295223	WORD_OFF	n/a	n/a	HEN	n/a	7	0	11	[0, 0, 0]	n/a	0	0	0	n/a	n/a	0.0	0	0	0	catFR3	1	R1243T
1289.218	1.6	1296173	WORD	n/a	wordpools/wordpool.txt	HORSE	FarmAnimals	8	0	11	[0, 0, 0]	n/a	0	0	0	n/a	n/a	0.0	0	0	0	catFR3	1	R1243T
1290.835	0.867	1297790	WORD_OFF	n/a	n/a	HORSE	n/a	8	0	11	[0, 0, 0]	n/a	0	0	0	n/a	n/a	0.0	0	0	0	catFR3	1	R1243T
1291.702	1.6	1298657	WORD	n/a	wordpools/wordpool.txt	SCANNER	Electronics	9	1	11	[0, 0, 0]	n/a	0	0	0	n/a	n/a	0.0	0	0	0	catFR3	1	R1243T
1293.319	0.917	1300274	WORD_OFF	n/a	n/a	SCANNER	n/a	9	0	11	[0, 0, 0]	n/a	0	0	0	n/a	n/a	0.0	0	0	0	catFR3	1	R1243T
1294.236	1.6	1301191	WORD	n/a	wordpools/wordpool.txt	PRINTER	Electronics	10	1	11	[0, 0, 0]	n/a	0	0	0	n/a	n/a	0.0	0	0	0	catFR3	1	R1243T
1295.852	0.917	1302807	WORD_OFF	n/a	n/a	PRINTER	n/a	10	0	11	[0, 0, 0]	n/a	0	0	0	n/a	n/a	0.0	0	0	0	catFR3	1	R1243T
1296.769	1.6	1303724	WORD	n/a	wordpools/wordpool.txt	RUM	Beverages	11	0	11	[0, 0, 0]	n/a	0	0	0	n/a	n/a	0.0	0	0	0	catFR3	1	R1243T
1298.386	0.867	1305341	WORD_OFF	n/a	n/a	RUM	n/a	11	0	11	[0, 0, 0]	n/a	0	0	0	n/a	n/a	0.0	0	0	0	catFR3	1	R1243T
1299.253	1.6	1306208	WORD	n/a	wordpools/wordpool.txt	JUICE	Beverages	12	0	11	[0, 0, 0]	n/a	0	0	0	n/a	n/a	0.0	0	0	0	catFR3	1	R1243T
1300.87	0.0	1307825	ENCODING_END	n/a	n/a	n/a	n/a	-999	0	11	[0, 0, 0]	n/a	0	0	0	n/a	n/a	0.0	0	0	0	catFR3	1	R1243T
1300.87	0.057	1307825	WORD_OFF	n/a	n/a	JUICE	n/a	12	0	11	[0, 0, 0]	n/a	0	0	0	n/a	n/a	0.0	0	0	0	catFR3	1	R1243T
1300.927	0.0	1307882	DISTRACT_START	n/a	n/a	n/a	n/a	-999	0	11	[0, 0, 0]	n/a	0	0	0	n/a	n/a	0.0	0	0	0	catFR3	1	R1243T
1300.927	0.01	1307882	START	n/a	n/a	n/a	n/a	-999	0	11	[-999, -999, -999]	n/a	0	0	0	n/a	n/a	0.0	0	0	0	catFR3	1	R1243T
1300.937	5.301	1307892	PROB	5.278	n/a	n/a	n/a	-999	0	11	[2, 6, 6]	14	0	0	0	n/a	n/a	0.0	0	0	0	catFR3	1	R1243T
1306.238	6.001	1313192	PROB	5.968	n/a	n/a	n/a	-999	0	11	[1, 7, 5]	13	0	0	0	n/a	n/a	0.0	0	0	0	catFR3	1	R1243T
1312.239	3.984	1319193	PROB	3.959	n/a	n/a	n/a	-999	0	11	[3, 7, 9]	19	0	0	0	n/a	n/a	0.0	0	0	0	catFR3	1	R1243T
1316.223	8.528	1323177	PROB	8.528	n/a	n/a	n/a	-999	0	11	[6, 7, 8]	21	0	0	0	n/a	n/a	0.0	0	0	0	catFR3	1	R1243T
1324.751	0.007	1331704	STOP	n/a	n/a	n/a	n/a	-999	0	11	[-999, -999, -999]	n/a	0	0	0	n/a	n/a	0.0	0	0	0	catFR3	1	R1243T
1324.758	0.55	1331711	DISTRACT_END	n/a	n/a	n/a	n/a	-999	0	11	[0, 0, 0]	n/a	0	0	0	n/a	n/a	0.0	0	0	0	catFR3	1	R1243T
1325.308	0.5	1332261	RETRIEVAL_ORIENT	n/a	n/a	n/a	n/a	-999	0	11	[0, 0, 0]	n/a	0	0	0	n/a	n/a	0.0	0	0	0	catFR3	1	R1243T
1325.825	2.281	1332778	REC_START	n/a	n/a	n/a	n/a	-999	0	11	[0, 0, 0]	n/a	0	0	0	n/a	n/a	0.0	0	0	0	catFR3	1	R1243T
1328.106	1.983	1335059	REC_WORD	2.281	n/a	SCANNER	Electronics	9	1	11	[0, 0, 0]	n/a	0	0	0	n/a	n/a	0.0	0	0	0	catFR3	1	R1243T
1330.089	6.602	1337042	REC_WORD	4.264	n/a	PRINTER	Electronics	10	1	11	[0, 0, 0]	n/a	0	0	0	n/a	n/a	0.0	0	0	0	catFR3	1	R1243T
1336.691	2.152	1343643	REC_WORD	10.866	n/a	CALCULATOR	n/a	-999	0	11	[0, 0, 0]	n/a	0	0	0	n/a	n/a	0.0	0	0	0	catFR3	1	R1243T
1338.843	7.719	1345795	REC_WORD	13.018	n/a	COMPUTER	n/a	-999	0	11	[0, 0, 0]	n/a	0	0	0	n/a	n/a	0.0	0	0	0	catFR3	1	R1243T
1346.562	4.421	1353514	REC_WORD	20.737	n/a	FREEZER	n/a	-999	0	11	[0, 0, 0]	n/a	0	0	0	n/a	n/a	0.0	0	0	0	catFR3	1	R1243T
1350.983	4.854	1357935	REC_WORD	25.158	n/a	HEN	FarmAnimals	7	1	11	[0, 0, 0]	n/a	0	0	0	n/a	n/a	0.0	0	0	0	catFR3	1	R1243T
1355.837	5.327	1362788	REC_END	n/a	n/a	n/a	n/a	-999	0	11	[0, 0, 0]	n/a	0	0	0	n/a	n/a	0.0	0	0	0	catFR3	1	R1243T
1361.164	0.5	1368115	TRIAL	n/a	n/a	n/a	n/a	-999	0	12	[0, 0, 0]	n/a	0	1	0	n/a	n/a	0.0	0	0	0	catFR3	1	R1243T
1361.664	10.0	1368615	COUNTDOWN_START	n/a	n/a	n/a	n/a	-999	0	12	[0, 0, 0]	n/a	0	1	0	n/a	n/a	0.0	0	0	0	catFR3	1	R1243T
1372.092	0.008	1379042	COUNTDOWN_END	n/a	n/a	n/a	n/a	-999	0	12	[0, 0, 0]	n/a	0	1	0	n/a	n/a	0.0	0	0	0	catFR3	1	R1243T
1372.1	1.6	1379050	ORIENT	n/a	n/a	n/a	n/a	-999	0	12	[0, 0, 0]	n/a	0	1	0	n/a	n/a	0.0	0	0	0	catFR3	1	R1243T
1373.717	1.983	1380667	ORIENT_OFF	n/a	n/a	n/a	n/a	-999	0	12	[0, 0, 0]	n/a	0	1	0	n/a	n/a	0.0	0	0	0	catFR3	1	R1243T
1375.7	1.6	1382650	WORD	n/a	wordpools/wordpool.txt	CAKE	Desserts	1	0	12	[0, 0, 0]	n/a	0	1	0	n/a	n/a	0.0	0	0	0	catFR3	1	R1243T
1375.892	0.5	1382842	STIM_ON	n/a	n/a	CAKE	n/a	1	0	12	[0, 0, 0]	n/a	1	1	500	LB8	LB9	1000.0	100	50	300	catFR3	1	R1243T
1376.383	0.934	1383333	STIM_OFF	n/a	n/a	n/a	n/a	1	0	12	[0, 0, 0]	n/a	0	1	500	LB8	LB9	1000.0	100	50	300	catFR3	1	R1243T
1377.317	0.8	1384267	WORD_OFF	n/a	n/a	CAKE	n/a	1	0	12	[0, 0, 0]	n/a	0	1	0	n/a	n/a	0.0	0	0	0	catFR3	1	R1243T
1378.117	1.6	1385067	WORD	n/a	wordpools/wordpool.txt	COBBLER	Desserts	2	0	12	[0, 0, 0]	n/a	0	1	0	n/a	n/a	0.0	0	0	0	catFR3	1	R1243T
1378.303	0.5	1385253	STIM_ON	n/a	n/a	COBBLER	n/a	2	0	12	[0, 0, 0]	n/a	1	1	500	LB8	LB9	1000.0	100	50	300	catFR3	1	R1243T
1378.793	0.941	1385743	STIM_OFF	n/a	n/a	n/a	n/a	2	0	12	[0, 0, 0]	n/a	0	1	500	LB8	LB9	1000.0	100	50	300	catFR3	1	R1243T
1379.734	0.934	1386684	WORD_OFF	n/a	n/a	COBBLER	n/a	2	0	12	[0, 0, 0]	n/a	0	1	0	n/a	n/a	0.0	0	0	0	catFR3	1	R1243T
1380.668	1.6	1387618	WORD	n/a	wordpools/wordpool.txt	SPARROW	Birds	3	0	12	[0, 0, 0]	n/a	0	1	0	n/a	n/a	0.0	0	0	0	catFR3	1	R1243T
1382.285	0.967	1389235	WORD_OFF	n/a	n/a	SPARROW	n/a	3	0	12	[0, 0, 0]	n/a	0	1	0	n/a	n/a	0.0	0	0	0	catFR3	1	R1243T
1383.252	1.6	1390202	WORD	n/a	wordpools/wordpool.txt	FINCH	Birds	4	0	12	[0, 0, 0]	n/a	0	1	0	n/a	n/a	0.0	0	0	0	catFR3	1	R1243T
1384.869	0.783	1391819	WORD_OFF	n/a	n/a	FINCH	n/a	4	0	12	[0, 0, 0]	n/a	0	1	0	n/a	n/a	0.0	0	0	0	catFR3	1	R1243T
1385.652	1.6	1392602	WORD	n/a	wordpools/wordpool.txt	BLENDER	Appliances	5	0	12	[0, 0, 0]	n/a	0	1	0	n/a	n/a	0.0	0	0	0	catFR3	1	R1243T
1385.839	0.5	1392789	STIM_ON	n/a	n/a	BLENDER	n/a	5	0	12	[0, 0, 0]	n/a	1	1	500	LB8	LB9	1000.0	100	50	300	catFR3	1	R1243T
1386.329	0.94	1393278	STIM_OFF	n/a	n/a	n/a	n/a	5	0	12	[0, 0, 0]	n/a	0	1	500	LB8	LB9	1000.0	100	50	300	catFR3	1	R1243T
1387.269	0.867	1394218	WORD_OFF	n/a	n/a	BLENDER	n/a	5	0	12	[0, 0, 0]	n/a	0	1	0	n/a	n/a	0.0	0	0	0	catFR3	1	R1243T
1388.136	1.6	1395085	WORD	n/a	wordpools/wordpool.txt	WASHER	Appliances	6	0	12	[0, 0, 0]	n/a	0	1	0	n/a	n/a	0.0	0	0	0	catFR3	1	R1243T
1388.327	0.5	1395276	STIM_ON	n/a	n/a	WASHER	n/a	6	0	12	[0, 0, 0]	n/a	1	1	500	LB8	LB9	1000.0	100	50	300	catFR3	1	R1243T
1388.817	0.936	1395766	STIM_OFF	n/a	n/a	n/a	n/a	6	0	12	[0, 0, 0]	n/a	0	1	500	LB8	LB9	1000.0	100	50	300	catFR3	1	R1243T
1389.753	0.9	1396702	WORD_OFF	n/a	n/a	WASHER	n/a	6	0	12	[0, 0, 0]	n/a	0	1	0	n/a	n/a	0.0	0	0	0	catFR3	1	R1243T
1390.653	1.6	1397602	WORD	n/a	wordpools/wordpool.txt	BROWNIES	Desserts	7	0	12	[0, 0, 0]	n/a	0	1	0	n/a	n/a	0.0	0	0	0	catFR3	1	R1243T
1390.842	0.5	1397791	STIM_ON	n/a	n/a	BROWNIES	n/a	7	0	12	[0, 0, 0]	n/a	1	1	500	LB8	LB9	1000.0	100	50	300	catFR3	1	R1243T
1391.332	0.938	1398281	STIM_OFF	n/a	n/a	n/a	n/a	7	0	12	[0, 0, 0]	n/a	0	1	500	LB8	LB9	1000.0	100	50	300	catFR3	1	R1243T
1392.27	0.917	1399219	WORD_OFF	n/a	n/a	BROWNIES	n/a	7	0	12	[0, 0, 0]	n/a	0	1	0	n/a	n/a	0.0	0	0	0	catFR3	1	R1243T
1393.187	1.6	1400136	WORD	n/a	wordpools/wordpool.txt	PIE	Desserts	8	0	12	[0, 0, 0]	n/a	0	1	0	n/a	n/a	0.0	0	0	0	catFR3	1	R1243T
1393.381	0.5	1400330	STIM_ON	n/a	n/a	PIE	n/a	8	0	12	[0, 0, 0]	n/a	1	1	500	LB8	LB9	1000.0	100	50	300	catFR3	1	R1243T
1393.871	0.933	1400820	STIM_OFF	n/a	n/a	n/a	n/a	8	0	12	[0, 0, 0]	n/a	0	1	500	LB8	LB9	1000.0	100	50	300	catFR3	1	R1243T
1394.804	0.782	1401753	WORD_OFF	n/a	n/a	PIE	n/a	8	0	12	[0, 0, 0]	n/a	0	1	0	n/a	n/a	0.0	0	0	0	catFR3	1	R1243T
1395.586	1.6	1402535	WORD	n/a	wordpools/wordpool.txt	GOOSE	Birds	9	1	12	[0, 0, 0]	n/a	0	1	0	n/a	n/a	0.0	0	0	0	catFR3	1	R1243T
1395.783	0.5	1402732	STIM_ON	n/a	n/a	GOOSE	n/a	9	1	12	[0, 0, 0]	n/a	1	1	500	LB8	LB9	1000.0	100	50	300	catFR3	1	R1243T
1396.273	0.931	1403222	STIM_OFF	n/a	n/a	n/a	n/a	9	0	12	[0, 0, 0]	n/a	0	1	500	LB8	LB9	1000.0	100	50	300	catFR3	1	R1243T
1397.204	0.867	1404153	WORD_OFF	n/a	n/a	GOOSE	n/a	9	0	12	[0, 0, 0]	n/a	0	1	0	n/a	n/a	0.0	0	0	0	catFR3	1	R1243T
1398.071	1.6	1405020	WORD	n/a	wordpools/wordpool.txt	DUCK	Birds	10	1	12	[0, 0, 0]	n/a	0	1	0	n/a	n/a	0.0	0	0	0	catFR3	1	R1243T
1398.265	0.5	1405214	STIM_ON	n/a	n/a	DUCK	n/a	10	1	12	[0, 0, 0]	n/a	1	1	500	LB8	LB9	1000.0	100	50	300	catFR3	1	R1243T
1398.755	0.933	1405704	STIM_OFF	n/a	n/a	n/a	n/a	10	0	12	[0, 0, 0]	n/a	0	1	500	LB8	LB9	1000.0	100	50	300	catFR3	1	R1243T
1399.688	0.883	1406637	WORD_OFF	n/a	n/a	DUCK	n/a	10	0	12	[0, 0, 0]	n/a	0	1	0	n/a	n/a	0.0	0	0	0	catFR3	1	R1243T
1400.571	1.6	1407520	WORD	n/a	wordpools/wordpool.txt	OVEN	Appliances	11	0	12	[0, 0, 0]	n/a	0	1	0	n/a	n/a	0.0	0	0	0	catFR3	1	R1243T
1400.762	0.5	1407711	STIM_ON	n/a	n/a	OVEN	n/a	11	0	12	[0, 0, 0]	n/a	1	1	500	LB8	LB9	1000.0	100	50	300	catFR3	1	R1243T
1401.252	0.937	1408201	STIM_OFF	n/a	n/a	n/a	n/a	11	0	12	[0, 0, 0]	n/a	0	1	500	LB8	LB9	1000.0	100	50	300	catFR3	1	R1243T
1402.189	0.983	1409138	WORD_OFF	n/a	n/a	OVEN	n/a	11	0	12	[0, 0, 0]	n/a	0	1	0	n/a	n/a	0.0	0	0	0	catFR3	1	R1243T
1403.172	1.6	1410120	WORD	n/a	wordpools/wordpool.txt	MIXER	Appliances	12	0	12	[0, 0, 0]	n/a	0	1	0	n/a	n/a	0.0	0	0	0	catFR3	1	R1243T
1403.367	0.5	1410315	STIM_ON	n/a	n/a	n/a	n/a	11	0	12	[0, 0, 0]	n/a	1	1	500	LB8	LB9	1000.0	100	50	300	catFR3	1	R1243T
1403.857	0.932	1410805	STIM_OFF	n/a	n/a	n/a	n/a	11	0	12	[0, 0, 0]	n/a	0	1	500	LB8	LB9	1000.0	100	50	300	catFR3	1	R1243T
1404.789	0.0	1411737	ENCODING_END	n/a	n/a	n/a	n/a	-999	0	12	[0, 0, 0]	n/a	0	1	0	n/a	n/a	0.0	0	0	0	catFR3	1	R1243T
1404.789	0.058	1411737	WORD_OFF	n/a	n/a	MIXER	n/a	12	0	12	[0, 0, 0]	n/a	0	1	0	n/a	n/a	0.0	0	0	0	catFR3	1	R1243T
1404.847	0.0	1411795	DISTRACT_START	n/a	n/a	n/a	n/a	-999	0	12	[0, 0, 0]	n/a	0	1	0	n/a	n/a	0.0	0	0	0	catFR3	1	R1243T
1404.847	0.009	1411795	START	n/a	n/a	n/a	n/a	-999	0	12	[-999, -999, -999]	n/a	0	1	0	n/a	n/a	0.0	0	0	0	catFR3	1	R1243T
1404.856	5.716	1411804	PROB	5.686	n/a	n/a	n/a	-999	0	12	[4, 3, 7]	14	0	1	0	n/a	n/a	0.0	0	0	0	catFR3	1	R1243T
1410.572	4.951	1417520	PROB	4.913	n/a	n/a	n/a	-999	0	12	[7, 6, 7]	20	0	1	0	n/a	n/a	0.0	0	0	0	catFR3	1	R1243T
1415.523	4.085	1422471	PROB	4.059	n/a	n/a	n/a	-999	0	12	[3, 8, 1]	12	0	1	0	n/a	n/a	0.0	0	0	0	catFR3	1	R1243T
1419.608	5.168	1426555	PROB	5.144	n/a	n/a	n/a	-999	0	12	[9, 9, 3]	22	0	1	0	n/a	n/a	0.0	0	0	0	catFR3	1	R1243T
1424.776	13.774	1431723	PROB	13.774	n/a	n/a	n/a	-999	0	12	[9, 4, 1]	14	0	1	0	n/a	n/a	0.0	0	0	0	catFR3	1	R1243T
1438.55	0.011	1445496	STOP	n/a	n/a	n/a	n/a	-999	0	12	[-999, -999, -999]	n/a	0	1	0	n/a	n/a	0.0	0	0	0	catFR3	1	R1243T
1438.561	0.634	1445507	DISTRACT_END	n/a	n/a	n/a	n/a	-999	0	12	[0, 0, 0]	n/a	0	1	0	n/a	n/a	0.0	0	0	0	catFR3	1	R1243T
1439.195	0.5	1446141	RETRIEVAL_ORIENT	n/a	n/a	n/a	n/a	-999	0	12	[0, 0, 0]	n/a	0	1	0	n/a	n/a	0.0	0	0	0	catFR3	1	R1243T
1439.713	2.442	1446659	REC_START	n/a	n/a	n/a	n/a	-999	0	12	[0, 0, 0]	n/a	0	1	0	n/a	n/a	0.0	0	0	0	catFR3	1	R1243T
1442.155	1.943	1449101	REC_WORD	2.442	n/a	DUCK	Birds	10	1	12	[0, 0, 0]	n/a	0	1	0	n/a	n/a	0.0	0	0	0	catFR3	1	R1243T
1444.098	4.829	1451044	REC_WORD	4.385	n/a	GOOSE	Birds	9	1	12	[0, 0, 0]	n/a	0	1	0	n/a	n/a	0.0	0	0	0	catFR3	1	R1243T
1448.927	3.472	1455873	REC_WORD	9.214	n/a	PLANKTON	n/a	-999	0	12	[0, 0, 0]	n/a	0	1	0	n/a	n/a	0.0	0	0	0	catFR3	1	R1243T
1452.399	2.588	1459344	REC_WORD	12.686	n/a	JELLYFISH	n/a	-999	0	12	[0, 0, 0]	n/a	0	1	0	n/a	n/a	0.0	0	0	0	catFR3	1	R1243T
1454.987	14.735	1461932	REC_WORD	15.274	n/a	DEER	n/a	-999	0	12	[0, 0, 0]	n/a	0	1	0	n/a	n/a	0.0	0	0	0	catFR3	1	R1243T
1469.722	5.18	1476666	REC_END	n/a	n/a	n/a	n/a	-999	0	12	[0, 0, 0]	n/a	0	1	0	n/a	n/a	0.0	0	0	0	catFR3	1	R1243T
1474.902	0.5	1481846	TRIAL	n/a	n/a	n/a	n/a	-999	0	13	[0, 0, 0]	n/a	0	0	0	n/a	n/a	0.0	0	0	0	catFR3	1	R1243T
1475.402	10.0	1482346	COUNTDOWN_START	n/a	n/a	n/a	n/a	-999	0	13	[0, 0, 0]	n/a	0	0	0	n/a	n/a	0.0	0	0	0	catFR3	1	R1243T
1485.83	0.007	1492773	COUNTDOWN_END	n/a	n/a	n/a	n/a	-999	0	13	[0, 0, 0]	n/a	0	0	0	n/a	n/a	0.0	0	0	0	catFR3	1	R1243T
1485.837	1.6	1492780	ORIENT	n/a	n/a	n/a	n/a	-999	0	13	[0, 0, 0]	n/a	0	0	0	n/a	n/a	0.0	0	0	0	catFR3	1	R1243T
1487.454	2.116	1494397	ORIENT_OFF	n/a	n/a	n/a	n/a	-999	0	13	[0, 0, 0]	n/a	0	0	0	n/a	n/a	0.0	0	0	0	catFR3	1	R1243T
1489.57	1.6	1496513	WORD	n/a	wordpools/wordpool.txt	ATTIC	Building	1	0	13	[0, 0, 0]	n/a	0	0	0	n/a	n/a	0.0	0	0	0	catFR3	1	R1243T
1491.188	1.017	1498131	WORD_OFF	n/a	n/a	ATTIC	n/a	1	0	13	[0, 0, 0]	n/a	0	0	0	n/a	n/a	0.0	0	0	0	catFR3	1	R1243T
1492.205	1.6	1499148	WORD	n/a	wordpools/wordpool.txt	BATHROOM	Building	2	1	13	[0, 0, 0]	n/a	0	0	0	n/a	n/a	0.0	0	0	0	catFR3	1	R1243T
1493.822	0.867	1500765	WORD_OFF	n/a	n/a	BATHROOM	n/a	2	0	13	[0, 0, 0]	n/a	0	0	0	n/a	n/a	0.0	0	0	0	catFR3	1	R1243T
1494.689	1.6	1501632	WORD	n/a	wordpools/wordpool.txt	ELBOW	BodyParts	3	1	13	[0, 0, 0]	n/a	0	0	0	n/a	n/a	0.0	0	0	0	catFR3	1	R1243T
1496.306	0.866	1503249	WORD_OFF	n/a	n/a	ELBOW	n/a	3	0	13	[0, 0, 0]	n/a	0	0	0	n/a	n/a	0.0	0	0	0	catFR3	1	R1243T
1497.172	1.6	1504115	WORD	n/a	wordpools/wordpool.txt	HAND	BodyParts	4	1	13	[0, 0, 0]	n/a	0	0	0	n/a	n/a	0.0	0	0	0	catFR3	1	R1243T
1498.789	0.884	1505732	WORD_OFF	n/a	n/a	HAND	n/a	4	0	13	[0, 0, 0]	n/a	0	0	0	n/a	n/a	0.0	0	0	0	catFR3	1	R1243T
1499.673	1.6	1506616	WORD	n/a	wordpools/wordpool.txt	DISHWASHER	Appliances	5	0	13	[0, 0, 0]	n/a	0	0	0	n/a	n/a	0.0	0	0	0	catFR3	1	R1243T
1501.29	0.85	1508233	WORD_OFF	n/a	n/a	DISHWASHER	n/a	5	0	13	[0, 0, 0]	n/a	0	0	0	n/a	n/a	0.0	0	0	0	catFR3	1	R1243T
1502.14	1.6	1509082	WORD	n/a	wordpools/wordpool.txt	VACUUM	Appliances	6	0	13	[0, 0, 0]	n/a	0	0	0	n/a	n/a	0.0	0	0	0	catFR3	1	R1243T
1503.757	0.967	1510699	WORD_OFF	n/a	n/a	VACUUM	n/a	6	0	13	[0, 0, 0]	n/a	0	0	0	n/a	n/a	0.0	0	0	0	catFR3	1	R1243T
1504.724	1.6	1511666	WORD	n/a	wordpools/wordpool.txt	DOOR	Building	7	0	13	[0, 0, 0]	n/a	0	0	0	n/a	n/a	0.0	0	0	0	catFR3	1	R1243T
1506.341	0.783	1513283	WORD_OFF	n/a	n/a	DOOR	n/a	7	0	13	[0, 0, 0]	n/a	0	0	0	n/a	n/a	0.0	0	0	0	catFR3	1	R1243T
1507.124	1.6	1514066	WORD	n/a	wordpools/wordpool.txt	WINDOW	Building	8	0	13	[0, 0, 0]	n/a	0	0	0	n/a	n/a	0.0	0	0	0	catFR3	1	R1243T
1508.741	0.917	1515683	WORD_OFF	n/a	n/a	WINDOW	n/a	8	0	13	[0, 0, 0]	n/a	0	0	0	n/a	n/a	0.0	0	0	0	catFR3	1	R1243T
1509.658	1.6	1516600	WORD	n/a	wordpools/wordpool.txt	NOSE	BodyParts	9	0	13	[0, 0, 0]	n/a	0	0	0	n/a	n/a	0.0	0	0	0	catFR3	1	R1243T
1511.275	0.834	1518217	WORD_OFF	n/a	n/a	NOSE	n/a	9	0	13	[0, 0, 0]	n/a	0	0	0	n/a	n/a	0.0	0	0	0	catFR3	1	R1243T
1512.109	1.6	1519051	WORD	n/a	wordpools/wordpool.txt	EYE	BodyParts	10	0	13	[0, 0, 0]	n/a	0	0	0	n/a	n/a	0.0	0	0	0	catFR3	1	R1243T
1513.726	0.849	1520668	WORD_OFF	n/a	n/a	EYE	n/a	10	0	13	[0, 0, 0]	n/a	0	0	0	n/a	n/a	0.0	0	0	0	catFR3	1	R1243T
1514.575	1.6	1521517	WORD	n/a	wordpools/wordpool.txt	DRYER	Appliances	11	0	13	[0, 0, 0]	n/a	0	0	0	n/a	n/a	0.0	0	0	0	catFR3	1	R1243T
1516.193	0.866	1523135	WORD_OFF	n/a	n/a	DRYER	n/a	11	0	13	[0, 0, 0]	n/a	0	0	0	n/a	n/a	0.0	0	0	0	catFR3	1	R1243T
1517.059	1.6	1524001	WORD	n/a	wordpools/wordpool.txt	TOASTER	Appliances	12	0	13	[0, 0, 0]	n/a	0	0	0	n/a	n/a	0.0	0	0	0	catFR3	1	R1243T
1518.677	0.0	1525618	ENCODING_END	n/a	n/a	n/a	n/a	-999	0	13	[0, 0, 0]	n/a	0	0	0	n/a	n/a	0.0	0	0	0	catFR3	1	R1243T
1518.677	0.057	1525618	WORD_OFF	n/a	n/a	TOASTER	n/a	12	0	13	[0, 0, 0]	n/a	0	0	0	n/a	n/a	0.0	0	0	0	catFR3	1	R1243T
1518.734	0.0	1525675	DISTRACT_START	n/a	n/a	n/a	n/a	-999	0	13	[0, 0, 0]	n/a	0	0	0	n/a	n/a	0.0	0	0	0	catFR3	1	R1243T
1518.734	0.009	1525675	START	n/a	n/a	n/a	n/a	-999	0	13	[-999, -999, -999]	n/a	0	0	0	n/a	n/a	0.0	0	0	0	catFR3	1	R1243T
1518.743	3.917	1525684	PROB	3.881	n/a	n/a	n/a	-999	0	13	[1, 1, 7]	9	0	0	0	n/a	n/a	0.0	0	0	0	catFR3	1	R1243T
1522.66	5.118	1529601	PROB	5.091	n/a	n/a	n/a	-999	0	13	[6, 5, 7]	18	0	0	0	n/a	n/a	0.0	0	0	0	catFR3	1	R1243T
1527.778	5.534	1534719	PROB	5.501	n/a	n/a	n/a	-999	0	13	[8, 8, 5]	21	0	0	0	n/a	n/a	0.0	0	0	0	catFR3	1	R1243T
1533.312	5.2	1540253	PROB	5.166	n/a	n/a	n/a	-999	0	13	[8, 4, 2]	14	0	0	0	n/a	n/a	0.0	0	0	0	catFR3	1	R1243T
1538.512	5.037	1545452	PROB	5.037	n/a	n/a	n/a	-999	0	13	[4, 9, 6]	19	0	0	0	n/a	n/a	0.0	0	0	0	catFR3	1	R1243T
1543.549	0.015	1550489	STOP	n/a	n/a	n/a	n/a	-999	0	13	[-999, -999, -999]	n/a	0	0	0	n/a	n/a	0.0	0	0	0	catFR3	1	R1243T
1543.564	0.517	1550504	DISTRACT_END	n/a	n/a	n/a	n/a	-999	0	13	[0, 0, 0]	n/a	0	0	0	n/a	n/a	0.0	0	0	0	catFR3	1	R1243T
1544.081	0.5	1551021	RETRIEVAL_ORIENT	n/a	n/a	n/a	n/a	-999	0	13	[0, 0, 0]	n/a	0	0	0	n/a	n/a	0.0	0	0	0	catFR3	1	R1243T
1544.599	4.786	1551539	REC_START	n/a	n/a	n/a	n/a	-999	0	13	[0, 0, 0]	n/a	0	0	0	n/a	n/a	0.0	0	0	0	catFR3	1	R1243T
1549.385	0.787	1556325	REC_WORD	4.786	n/a	ARM	n/a	-999	0	13	[0, 0, 0]	n/a	0	0	0	n/a	n/a	0.0	0	0	0	catFR3	1	R1243T
1550.172	0.784	1557112	REC_WORD	5.573	n/a	HAND	BodyParts	4	1	13	[0, 0, 0]	n/a	0	0	0	n/a	n/a	0.0	0	0	0	catFR3	1	R1243T
1550.956	2.87	1557896	REC_WORD	6.357	n/a	ELBOW	BodyParts	3	1	13	[0, 0, 0]	n/a	0	0	0	n/a	n/a	0.0	0	0	0	catFR3	1	R1243T
1553.826	1.221	1560765	REC_WORD	9.227	n/a	FREEZER	n/a	-999	0	13	[0, 0, 0]	n/a	0	0	0	n/a	n/a	0.0	0	0	0	catFR3	1	R1243T
1555.047	1.273	1561986	REC_WORD	10.448	n/a	REFRIGERATOR	n/a	-999	0	13	[0, 0, 0]	n/a	0	0	0	n/a	n/a	0.0	0	0	0	catFR3	1	R1243T
1556.32	1.277	1563259	REC_WORD	11.721	n/a	BATHROOM	Building	2	1	13	[0, 0, 0]	n/a	0	0	0	n/a	n/a	0.0	0	0	0	catFR3	1	R1243T
1557.597	1.39	1564536	REC_WORD	12.998	n/a	CEILING	n/a	-999	0	13	[0, 0, 0]	n/a	0	0	0	n/a	n/a	0.0	0	0	0	catFR3	1	R1243T
1558.987	10.588	1565926	REC_WORD	14.388	n/a	FLOOR	n/a	-999	0	13	[0, 0, 0]	n/a	0	0	0	n/a	n/a	0.0	0	0	0	catFR3	1	R1243T
1569.575	1.0	1576513	REC_WORD_VV	24.976	n/a	<>	n/a	-999	0	13	[0, 0, 0]	n/a	0	0	0	n/a	n/a	0.0	0	0	0	catFR3	1	R1243T
1570.575	1.0	1577513	REC_WORD_VV	25.976	n/a	<>	n/a	-999	0	13	[0, 0, 0]	n/a	0	0	0	n/a	n/a	0.0	0	0	0	catFR3	1	R1243T
1571.575	3.035	1578513	REC_WORD_VV	26.976	n/a	<>	n/a	-999	0	13	[0, 0, 0]	n/a	0	0	0	n/a	n/a	0.0	0	0	0	catFR3	1	R1243T
1574.61	5.161	1581548	REC_END	n/a	n/a	n/a	n/a	-999	0	13	[0, 0, 0]	n/a	0	0	0	n/a	n/a	0.0	0	0	0	catFR3	1	R1243T
1579.771	0.5	1586709	TRIAL	n/a	n/a	n/a	n/a	-999	0	14	[0, 0, 0]	n/a	0	1	0	n/a	n/a	0.0	0	0	0	catFR3	1	R1243T
1580.271	10.0	1587209	COUNTDOWN_START	n/a	n/a	n/a	n/a	-999	0	14	[0, 0, 0]	n/a	0	1	0	n/a	n/a	0.0	0	0	0	catFR3	1	R1243T
1590.699	0.007	1597636	COUNTDOWN_END	n/a	n/a	n/a	n/a	-999	0	14	[0, 0, 0]	n/a	0	1	0	n/a	n/a	0.0	0	0	0	catFR3	1	R1243T
1590.706	1.6	1597643	ORIENT	n/a	n/a	n/a	n/a	-999	0	14	[0, 0, 0]	n/a	0	1	0	n/a	n/a	0.0	0	0	0	catFR3	1	R1243T
1592.323	2.084	1599260	ORIENT_OFF	n/a	n/a	n/a	n/a	-999	0	14	[0, 0, 0]	n/a	0	1	0	n/a	n/a	0.0	0	0	0	catFR3	1	R1243T
1594.407	1.6	1601344	WORD	n/a	wordpools/wordpool.txt	TIGER	Zoo	1	1	14	[0, 0, 0]	n/a	0	1	0	n/a	n/a	0.0	0	0	0	catFR3	1	R1243T
1594.61	0.5	1601547	STIM_ON	n/a	n/a	TIGER	n/a	1	1	14	[0, 0, 0]	n/a	1	1	500	LB8	LB9	1000.0	100	50	300	catFR3	1	R1243T
1595.101	0.923	1602038	STIM_OFF	n/a	n/a	n/a	n/a	1	0	14	[0, 0, 0]	n/a	0	1	500	LB8	LB9	1000.0	100	50	300	catFR3	1	R1243T
1596.024	0.883	1602961	WORD_OFF	n/a	n/a	TIGER	n/a	1	0	14	[0, 0, 0]	n/a	0	1	0	n/a	n/a	0.0	0	0	0	catFR3	1	R1243T
1596.907	1.6	1603844	WORD	n/a	wordpools/wordpool.txt	GORILLA	Zoo	2	1	14	[0, 0, 0]	n/a	0	1	0	n/a	n/a	0.0	0	0	0	catFR3	1	R1243T
1598.523	0.818	1605460	WORD_OFF	n/a	n/a	GORILLA	n/a	2	0	14	[0, 0, 0]	n/a	0	1	0	n/a	n/a	0.0	0	0	0	catFR3	1	R1243T
1599.341	1.6	1606278	WORD	n/a	wordpools/wordpool.txt	CELLO	Instruments	3	0	14	[0, 0, 0]	n/a	0	1	0	n/a	n/a	0.0	0	0	0	catFR3	1	R1243T
1600.958	0.834	1607894	WORD_OFF	n/a	n/a	CELLO	n/a	3	0	14	[0, 0, 0]	n/a	0	1	0	n/a	n/a	0.0	0	0	0	catFR3	1	R1243T
1601.792	1.6	1608728	WORD	n/a	wordpools/wordpool.txt	TROMBONE	Instruments	4	1	14	[0, 0, 0]	n/a	0	1	0	n/a	n/a	0.0	0	0	0	catFR3	1	R1243T
1601.99	0.5	1608926	STIM_ON	n/a	n/a	TROMBONE	n/a	4	1	14	[0, 0, 0]	n/a	1	1	500	LB8	LB9	1000.0	100	50	300	catFR3	1	R1243T
1602.48	0.929	1609416	STIM_OFF	n/a	n/a	n/a	n/a	4	0	14	[0, 0, 0]	n/a	0	1	500	LB8	LB9	1000.0	100	50	300	catFR3	1	R1243T
1603.409	0.766	1610345	WORD_OFF	n/a	n/a	TROMBONE	n/a	4	0	14	[0, 0, 0]	n/a	0	1	0	n/a	n/a	0.0	0	0	0	catFR3	1	R1243T
1604.175	1.6	1611111	WORD	n/a	wordpools/wordpool.txt	MOUSSE	Desserts	5	0	14	[0, 0, 0]	n/a	0	1	0	n/a	n/a	0.0	0	0	0	catFR3	1	R1243T
1604.377	0.5	1611313	STIM_ON	n/a	n/a	MOUSSE	n/a	5	0	14	[0, 0, 0]	n/a	1	1	500	LB8	LB9	1000.0	100	50	300	catFR3	1	R1243T
1604.867	0.925	1611803	STIM_OFF	n/a	n/a	n/a	n/a	5	0	14	[0, 0, 0]	n/a	0	1	500	LB8	LB9	1000.0	100	50	300	catFR3	1	R1243T
1605.792	0.85	1612728	WORD_OFF	n/a	n/a	MOUSSE	n/a	5	0	14	[0, 0, 0]	n/a	0	1	0	n/a	n/a	0.0	0	0	0	catFR3	1	R1243T
1606.642	1.6	1613578	WORD	n/a	wordpools/wordpool.txt	CHEESECAKE	Desserts	6	1	14	[0, 0, 0]	n/a	0	1	0	n/a	n/a	0.0	0	0	0	catFR3	1	R1243T
1606.842	0.5	1613778	STIM_ON	n/a	n/a	CHEESECAKE	n/a	6	1	14	[0, 0, 0]	n/a	1	1	500	LB8	LB9	1000.0	100	50	300	catFR3	1	R1243T
1607.332	0.927	1614268	STIM_OFF	n/a	n/a	n/a	n/a	6	0	14	[0, 0, 0]	n/a	0	1	500	LB8	LB9	1000.0	100	50	300	catFR3	1	R1243T
1608.259	0.917	1615195	WORD_OFF	n/a	n/a	CHEESECAKE	n/a	6	0	14	[0, 0, 0]	n/a	0	1	0	n/a	n/a	0.0	0	0	0	catFR3	1	R1243T
1609.176	1.6	1616112	WORD	n/a	wordpools/wordpool.txt	MONKEY	Zoo	7	1	14	[0, 0, 0]	n/a	0	1	0	n/a	n/a	0.0	0	0	0	catFR3	1	R1243T
1609.379	0.5	1616315	STIM_ON	n/a	n/a	MONKEY	n/a	7	1	14	[0, 0, 0]	n/a	1	1	500	LB8	LB9	1000.0	100	50	300	catFR3	1	R1243T
1609.869	0.924	1616805	STIM_OFF	n/a	n/a	n/a	n/a	7	0	14	[0, 0, 0]	n/a	0	1	500	LB8	LB9	1000.0	100	50	300	catFR3	1	R1243T
1610.793	0.901	1617729	WORD_OFF	n/a	n/a	MONKEY	n/a	7	0	14	[0, 0, 0]	n/a	0	1	0	n/a	n/a	0.0	0	0	0	catFR3	1	R1243T
1611.694	1.6	1618630	WORD	n/a	wordpools/wordpool.txt	CHEETAH	Zoo	8	1	14	[0, 0, 0]	n/a	0	1	0	n/a	n/a	0.0	0	0	0	catFR3	1	R1243T
1613.31	0.917	1620246	WORD_OFF	n/a	n/a	CHEETAH	n/a	8	0	14	[0, 0, 0]	n/a	0	1	0	n/a	n/a	0.0	0	0	0	catFR3	1	R1243T
1614.227	1.6	1621163	WORD	n/a	wordpools/wordpool.txt	VIOLIN	Instruments	9	0	14	[0, 0, 0]	n/a	0	1	0	n/a	n/a	0.0	0	0	0	catFR3	1	R1243T
1614.427	0.5	1621363	STIM_ON	n/a	n/a	VIOLIN	n/a	9	0	14	[0, 0, 0]	n/a	1	1	500	LB8	LB9	1000.0	100	50	300	catFR3	1	R1243T
1614.917	0.927	1621853	STIM_OFF	n/a	n/a	n/a	n/a	9	0	14	[0, 0, 0]	n/a	0	1	500	LB8	LB9	1000.0	100	50	300	catFR3	1	R1243T
1615.844	0.867	1622780	WORD_OFF	n/a	n/a	VIOLIN	n/a	9	0	14	[0, 0, 0]	n/a	0	1	0	n/a	n/a	0.0	0	0	0	catFR3	1	R1243T
1616.711	1.6	1623647	WORD	n/a	wordpools/wordpool.txt	BASS	Instruments	10	0	14	[0, 0, 0]	n/a	0	1	0	n/a	n/a	0.0	0	0	0	catFR3	1	R1243T
1616.916	0.5	1623852	STIM_ON	n/a	n/a	BASS	n/a	10	0	14	[0, 0, 0]	n/a	1	1	500	LB8	LB9	1000.0	100	50	300	catFR3	1	R1243T
1617.406	0.922	1624341	STIM_OFF	n/a	n/a	n/a	n/a	10	0	14	[0, 0, 0]	n/a	0	1	500	LB8	LB9	1000.0	100	50	300	catFR3	1	R1243T
1618.328	0.867	1625263	WORD_OFF	n/a	n/a	BASS	n/a	10	0	14	[0, 0, 0]	n/a	0	1	0	n/a	n/a	0.0	0	0	0	catFR3	1	R1243T
1619.195	1.6	1626130	WORD	n/a	wordpools/wordpool.txt	JELLO	Desserts	11	0	14	[0, 0, 0]	n/a	0	1	0	n/a	n/a	0.0	0	0	0	catFR3	1	R1243T
1620.812	0.917	1627747	WORD_OFF	n/a	n/a	JELLO	n/a	11	0	14	[0, 0, 0]	n/a	0	1	0	n/a	n/a	0.0	0	0	0	catFR3	1	R1243T
1621.729	1.6	1628664	WORD	n/a	wordpools/wordpool.txt	FUDGE	Desserts	12	0	14	[0, 0, 0]	n/a	0	1	0	n/a	n/a	0.0	0	0	0	catFR3	1	R1243T
1621.931	0.5	1628866	STIM_ON	n/a	n/a	n/a	n/a	11	0	14	[0, 0, 0]	n/a	1	1	500	LB8	LB9	1000.0	100	50	300	catFR3	1	R1243T
1622.421	0.924	1629356	STIM_OFF	n/a	n/a	n/a	n/a	11	0	14	[0, 0, 0]	n/a	0	1	500	LB8	LB9	1000.0	100	50	300	catFR3	1	R1243T
1623.345	0.001	1630280	WORD_OFF	n/a	n/a	FUDGE	n/a	12	0	14	[0, 0, 0]	n/a	0	1	0	n/a	n/a	0.0	0	0	0	catFR3	1	R1243T
1623.346	0.056	1630281	ENCODING_END	n/a	n/a	n/a	n/a	-999	0	14	[0, 0, 0]	n/a	0	1	0	n/a	n/a	0.0	0	0	0	catFR3	1	R1243T
1623.402	0.001	1630337	DISTRACT_START	n/a	n/a	n/a	n/a	-999	0	14	[0, 0, 0]	n/a	0	1	0	n/a	n/a	0.0	0	0	0	catFR3	1	R1243T
1623.403	0.009	1630338	START	n/a	n/a	n/a	n/a	-999	0	14	[-999, -999, -999]	n/a	0	1	0	n/a	n/a	0.0	0	0	0	catFR3	1	R1243T
1623.412	4.268	1630347	PROB	4.235	n/a	n/a	n/a	-999	0	14	[2, 1, 2]	5	0	1	0	n/a	n/a	0.0	0	0	0	catFR3	1	R1243T
1627.68	3.784	1634615	PROB	3.751	n/a	n/a	n/a	-999	0	14	[3, 4, 7]	14	0	1	0	n/a	n/a	0.0	0	0	0	catFR3	1	R1243T
1631.464	3.884	1638399	PROB	3.847	n/a	n/a	n/a	-999	0	14	[1, 2, 9]	12	0	1	0	n/a	n/a	0.0	0	0	0	catFR3	1	R1243T
1635.348	8.538	1642282	PROB	8.538	n/a	n/a	n/a	-999	0	14	[9, 9, 9]	27	0	1	0	n/a	n/a	0.0	0	0	0	catFR3	1	R1243T
1643.886	0.013	1650820	STOP	n/a	n/a	n/a	n/a	-999	0	14	[-999, -999, -999]	n/a	0	1	0	n/a	n/a	0.0	0	0	0	catFR3	1	R1243T
1643.899	0.567	1650833	DISTRACT_END	n/a	n/a	n/a	n/a	-999	0	14	[0, 0, 0]	n/a	0	1	0	n/a	n/a	0.0	0	0	0	catFR3	1	R1243T
1644.466	0.5	1651400	RETRIEVAL_ORIENT	n/a	n/a	n/a	n/a	-999	0	14	[0, 0, 0]	n/a	0	1	0	n/a	n/a	0.0	0	0	0	catFR3	1	R1243T
1644.984	2.785	1651918	REC_START	n/a	n/a	n/a	n/a	-999	0	14	[0, 0, 0]	n/a	0	1	0	n/a	n/a	0.0	0	0	0	catFR3	1	R1243T
1647.769	2.142	1654703	REC_WORD	2.785	n/a	TIGER	Zoo	1	1	14	[0, 0, 0]	n/a	0	1	0	n/a	n/a	0.0	0	0	0	catFR3	1	R1243T
1649.911	2.851	1656845	REC_WORD	4.927	n/a	TROMBONE	Instruments	4	1	14	[0, 0, 0]	n/a	0	1	0	n/a	n/a	0.0	0	0	0	catFR3	1	R1243T
1652.762	11.397	1659695	REC_WORD	7.778	n/a	CHEESECAKE	Desserts	6	1	14	[0, 0, 0]	n/a	0	1	0	n/a	n/a	0.0	0	0	0	catFR3	1	R1243T
1664.159	1.809	1671092	REC_WORD	19.175	n/a	MONKEY	Zoo	7	1	14	[0, 0, 0]	n/a	0	1	0	n/a	n/a	0.0	0	0	0	catFR3	1	R1243T
1665.968	4.583	1672901	REC_WORD	20.984	n/a	GORILLA	Zoo	2	1	14	[0, 0, 0]	n/a	0	1	0	n/a	n/a	0.0	0	0	0	catFR3	1	R1243T
1670.551	2.317	1677483	REC_WORD	25.567	n/a	CHEETAH	Zoo	8	1	14	[0, 0, 0]	n/a	0	1	0	n/a	n/a	0.0	0	0	0	catFR3	1	R1243T
1672.868	2.127	1679800	REC_WORD	27.884	n/a	ZOO	n/a	-999	0	14	[0, 0, 0]	n/a	0	1	0	n/a	n/a	0.0	0	0	0	catFR3	1	R1243T
1674.995	7.145	1681927	REC_END	n/a	n/a	n/a	n/a	-999	0	14	[0, 0, 0]	n/a	0	1	0	n/a	n/a	0.0	0	0	0	catFR3	1	R1243T
1682.14	0.5	1689072	TRIAL	n/a	n/a	n/a	n/a	-999	0	15	[0, 0, 0]	n/a	0	0	0	n/a	n/a	0.0	0	0	0	catFR3	1	R1243T
1682.64	10.0	1689572	COUNTDOWN_START	n/a	n/a	n/a	n/a	-999	0	15	[0, 0, 0]	n/a	0	0	0	n/a	n/a	0.0	0	0	0	catFR3	1	R1243T
1693.068	0.007	1699999	COUNTDOWN_END	n/a	n/a	n/a	n/a	-999	0	15	[0, 0, 0]	n/a	0	0	0	n/a	n/a	0.0	0	0	0	catFR3	1	R1243T
1693.075	1.6	1700006	ORIENT	n/a	n/a	n/a	n/a	-999	0	15	[0, 0, 0]	n/a	0	0	0	n/a	n/a	0.0	0	0	0	catFR3	1	R1243T
1694.692	2.034	1701623	ORIENT_OFF	n/a	n/a	n/a	n/a	-999	0	15	[0, 0, 0]	n/a	0	0	0	n/a	n/a	0.0	0	0	0	catFR3	1	R1243T
1696.726	1.6	1703657	WORD	n/a	wordpools/wordpool.txt	BINDER	OfficeSupplies	1	1	15	[0, 0, 0]	n/a	0	0	0	n/a	n/a	0.0	0	0	0	catFR3	1	R1243T
1698.343	0.983	1705274	WORD_OFF	n/a	n/a	BINDER	n/a	1	0	15	[0, 0, 0]	n/a	0	0	0	n/a	n/a	0.0	0	0	0	catFR3	1	R1243T
1699.326	1.6	1706257	WORD	n/a	wordpools/wordpool.txt	ERASER	OfficeSupplies	2	0	15	[0, 0, 0]	n/a	0	0	0	n/a	n/a	0.0	0	0	0	catFR3	1	R1243T
1700.943	0.967	1707873	WORD_OFF	n/a	n/a	ERASER	n/a	2	0	15	[0, 0, 0]	n/a	0	0	0	n/a	n/a	0.0	0	0	0	catFR3	1	R1243T
1701.91	1.6	1708840	WORD	n/a	wordpools/wordpool.txt	WALNUT	Trees	3	0	15	[0, 0, 0]	n/a	0	0	0	n/a	n/a	0.0	0	0	0	catFR3	1	R1243T
1703.526	0.918	1710456	WORD_OFF	n/a	n/a	WALNUT	n/a	3	0	15	[0, 0, 0]	n/a	0	0	0	n/a	n/a	0.0	0	0	0	catFR3	1	R1243T
1704.444	1.6	1711374	WORD	n/a	wordpools/wordpool.txt	HICKORY	Trees	4	0	15	[0, 0, 0]	n/a	0	0	0	n/a	n/a	0.0	0	0	0	catFR3	1	R1243T
1706.061	0.85	1712991	WORD_OFF	n/a	n/a	HICKORY	n/a	4	0	15	[0, 0, 0]	n/a	0	0	0	n/a	n/a	0.0	0	0	0	catFR3	1	R1243T
1706.911	1.6	1713841	WORD	n/a	wordpools/wordpool.txt	STEREO	Electronics	5	1	15	[0, 0, 0]	n/a	0	0	0	n/a	n/a	0.0	0	0	0	catFR3	1	R1243T
1708.527	0.934	1715457	WORD_OFF	n/a	n/a	STEREO	n/a	5	0	15	[0, 0, 0]	n/a	0	0	0	n/a	n/a	0.0	0	0	0	catFR3	1	R1243T
1709.461	1.6	1716391	WORD	n/a	wordpools/wordpool.txt	HEADPHONES	Electronics	6	1	15	[0, 0, 0]	n/a	0	0	0	n/a	n/a	0.0	0	0	0	catFR3	1	R1243T
1711.078	1.0	1718008	WORD_OFF	n/a	n/a	HEADPHONES	n/a	6	0	15	[0, 0, 0]	n/a	0	0	0	n/a	n/a	0.0	0	0	0	catFR3	1	R1243T
1712.078	1.6	1719008	WORD	n/a	wordpools/wordpool.txt	WILLOW	Trees	7	0	15	[0, 0, 0]	n/a	0	0	0	n/a	n/a	0.0	0	0	0	catFR3	1	R1243T
1713.695	1.001	1720625	WORD_OFF	n/a	n/a	WILLOW	n/a	7	0	15	[0, 0, 0]	n/a	0	0	0	n/a	n/a	0.0	0	0	0	catFR3	1	R1243T
1714.696	1.6	1721626	WORD	n/a	wordpools/wordpool.txt	BIRCH	Trees	8	0	15	[0, 0, 0]	n/a	0	0	0	n/a	n/a	0.0	0	0	0	catFR3	1	R1243T
1716.312	0.867	1723242	WORD_OFF	n/a	n/a	BIRCH	n/a	8	0	15	[0, 0, 0]	n/a	0	0	0	n/a	n/a	0.0	0	0	0	catFR3	1	R1243T
1717.179	1.6	1724108	WORD	n/a	wordpools/wordpool.txt	PENCIL	OfficeSupplies	9	0	15	[0, 0, 0]	n/a	0	0	0	n/a	n/a	0.0	0	0	0	catFR3	1	R1243T
1718.796	0.85	1725725	WORD_OFF	n/a	n/a	PENCIL	n/a	9	0	15	[0, 0, 0]	n/a	0	0	0	n/a	n/a	0.0	0	0	0	catFR3	1	R1243T
1719.646	1.6	1726575	WORD	n/a	wordpools/wordpool.txt	FOLDER	OfficeSupplies	10	0	15	[0, 0, 0]	n/a	0	0	0	n/a	n/a	0.0	0	0	0	catFR3	1	R1243T
1721.264	1.0	1728193	WORD_OFF	n/a	n/a	FOLDER	n/a	10	0	15	[0, 0, 0]	n/a	0	0	0	n/a	n/a	0.0	0	0	0	catFR3	1	R1243T
1722.264	1.6	1729193	WORD	n/a	wordpools/wordpool.txt	SPEAKER	Electronics	11	0	15	[0, 0, 0]	n/a	0	0	0	n/a	n/a	0.0	0	0	0	catFR3	1	R1243T
1723.881	0.916	1730810	WORD_OFF	n/a	n/a	SPEAKER	n/a	11	0	15	[0, 0, 0]	n/a	0	0	0	n/a	n/a	0.0	0	0	0	catFR3	1	R1243T
1724.797	1.6	1731726	WORD	n/a	wordpools/wordpool.txt	TELEVISION	Electronics	12	0	15	[0, 0, 0]	n/a	0	0	0	n/a	n/a	0.0	0	0	0	catFR3	1	R1243T
1726.414	0.001	1733343	WORD_OFF	n/a	n/a	TELEVISION	n/a	12	0	15	[0, 0, 0]	n/a	0	0	0	n/a	n/a	0.0	0	0	0	catFR3	1	R1243T
1726.415	0.061	1733344	ENCODING_END	n/a	n/a	n/a	n/a	-999	0	15	[0, 0, 0]	n/a	0	0	0	n/a	n/a	0.0	0	0	0	catFR3	1	R1243T
1726.476	0.0	1733405	DISTRACT_START	n/a	n/a	n/a	n/a	-999	0	15	[0, 0, 0]	n/a	0	0	0	n/a	n/a	0.0	0	0	0	catFR3	1	R1243T
1726.476	0.021	1733405	START	n/a	n/a	n/a	n/a	-999	0	15	[-999, -999, -999]	n/a	0	0	0	n/a	n/a	0.0	0	0	0	catFR3	1	R1243T
1726.497	7.685	1733426	PROB	7.654	n/a	n/a	n/a	-999	0	15	[4, 3, 8]	15	0	0	0	n/a	n/a	0.0	0	0	0	catFR3	1	R1243T
1734.182	4.018	1741110	PROB	3.993	n/a	n/a	n/a	-999	0	15	[3, 5, 4]	12	0	0	0	n/a	n/a	0.0	0	0	0	catFR3	1	R1243T
1738.2	4.517	1745128	PROB	4.479	n/a	n/a	n/a	-999	0	15	[7, 6, 1]	14	0	0	0	n/a	n/a	0.0	0	0	0	catFR3	1	R1243T
1742.717	3.234	1749645	PROB	3.209	n/a	n/a	n/a	-999	0	15	[8, 2, 2]	12	0	0	0	n/a	n/a	0.0	0	0	0	catFR3	1	R1243T
1745.951	8.936	1752879	PROB	8.936	n/a	n/a	n/a	-999	0	15	[9, 6, 5]	21	0	0	0	n/a	n/a	0.0	0	0	0	catFR3	1	R1243T
1754.887	0.016	1761814	STOP	n/a	n/a	n/a	n/a	-999	0	15	[-999, -999, -999]	n/a	0	0	0	n/a	n/a	0.0	0	0	0	catFR3	1	R1243T
1754.903	0.516	1761830	DISTRACT_END	n/a	n/a	n/a	n/a	-999	0	15	[0, 0, 0]	n/a	0	0	0	n/a	n/a	0.0	0	0	0	catFR3	1	R1243T
1755.419	0.5	1762346	RETRIEVAL_ORIENT	n/a	n/a	n/a	n/a	-999	0	15	[0, 0, 0]	n/a	0	0	0	n/a	n/a	0.0	0	0	0	catFR3	1	R1243T
1755.937	4.22	1762864	REC_START	n/a	n/a	n/a	n/a	-999	0	15	[0, 0, 0]	n/a	0	0	0	n/a	n/a	0.0	0	0	0	catFR3	1	R1243T
1760.157	0.976	1767084	REC_WORD	4.22	n/a	STEREO	Electronics	5	1	15	[0, 0, 0]	n/a	0	0	0	n/a	n/a	0.0	0	0	0	catFR3	1	R1243T
1761.133	11.465	1768060	REC_WORD	5.196	n/a	HEADPHONES	Electronics	6	1	15	[0, 0, 0]	n/a	0	0	0	n/a	n/a	0.0	0	0	0	catFR3	1	R1243T
1772.598	13.35	1779524	REC_WORD	16.661	n/a	BINDER	OfficeSupplies	1	1	15	[0, 0, 0]	n/a	0	0	0	n/a	n/a	0.0	0	0	0	catFR3	1	R1243T
1785.948	27.432	1792873	REC_END	n/a	n/a	n/a	n/a	-999	0	15	[0, 0, 0]	n/a	0	0	0	n/a	n/a	0.0	0	0	0	catFR3	1	R1243T
1813.38	0.5	1820304	TRIAL	n/a	n/a	n/a	n/a	-999	0	16	[0, 0, 0]	n/a	0	0	0	n/a	n/a	0.0	0	0	0	catFR3	1	R1243T
1813.88	10.0	1820804	COUNTDOWN_START	n/a	n/a	n/a	n/a	-999	0	16	[0, 0, 0]	n/a	0	0	0	n/a	n/a	0.0	0	0	0	catFR3	1	R1243T
1824.308	0.008	1831231	COUNTDOWN_END	n/a	n/a	n/a	n/a	-999	0	16	[0, 0, 0]	n/a	0	0	0	n/a	n/a	0.0	0	0	0	catFR3	1	R1243T
1824.316	1.6	1831239	ORIENT	n/a	n/a	n/a	n/a	-999	0	16	[0, 0, 0]	n/a	0	0	0	n/a	n/a	0.0	0	0	0	catFR3	1	R1243T
1825.933	2.383	1832856	ORIENT_OFF	n/a	n/a	n/a	n/a	-999	0	16	[0, 0, 0]	n/a	0	0	0	n/a	n/a	0.0	0	0	0	catFR3	1	R1243T
