onset	duration	sample	trial_type	response_time	stim_file	item_name	category	serialpos	recalled	list	test	answer	stimulation	stim_list	stim_duration	anode_label	cathode_label	amplitude	pulse_freq	n_pulses	pulse_width	experiment	session	subject
0.0	0.5	1067481	STIM_ON	n/a	n/a	n/a	n/a	-999	0	-999	[0, 0, 0]	n/a	1	0	500	LS4	LS5	500.0	100	50	300	catFR3	0	R1236J
0.49	9.741	1067971	STIM_OFF	n/a	n/a	n/a	n/a	-999	0	-999	[0, 0, 0]	n/a	0	0	500	LS4	LS5	500.0	100	50	300	catFR3	0	R1236J
10.231	0.5	1077712	STIM_ON	n/a	n/a	n/a	n/a	-999	0	-999	[0, 0, 0]	n/a	1	0	500	LS4	LS5	500.0	100	50	300	catFR3	0	R1236J
10.721	34.6	1078202	STIM_OFF	n/a	n/a	n/a	n/a	-999	0	-999	[0, 0, 0]	n/a	0	0	500	LS4	LS5	500.0	100	50	300	catFR3	0	R1236J
45.321	0.0	1112802	INSTRUCT_START	n/a	n/a	n/a	n/a	-999	0	-999	[0, 0, 0]	n/a	0	0	0	n/a	n/a	0.0	0	0	0	catFR3	0	R1236J
45.321	11.093	1112802	INSTRUCT_END	n/a	n/a	n/a	n/a	-999	0	-999	[0, 0, 0]	n/a	0	0	0	n/a	n/a	0.0	0	0	0	catFR3	0	R1236J
56.414	0.0	1123895	SESS_START	n/a	n/a	n/a	n/a	-999	0	-999	[0, 0, 0]	n/a	0	0	0	n/a	n/a	0.0	0	0	0	catFR3	0	R1236J
56.414	21.501	1123895	MIC_TEST	n/a	n/a	n/a	n/a	-999	0	-999	[0, 0, 0]	n/a	0	0	0	n/a	n/a	0.0	0	0	0	catFR3	0	R1236J
77.915	2.093	1145396	PRACTICE_TRIAL	n/a	n/a	n/a	n/a	-999	0	-1	[0, 0, 0]	n/a	0	0	0	n/a	n/a	0.0	0	0	0	catFR3	0	R1236J
80.008	10.0	1147489	COUNTDOWN_START	n/a	n/a	n/a	n/a	-999	0	-1	[0, 0, 0]	n/a	0	0	0	n/a	n/a	0.0	0	0	0	catFR3	0	R1236J
90.436	0.023	1157917	COUNTDOWN_END	n/a	n/a	n/a	n/a	-999	0	-1	[0, 0, 0]	n/a	0	0	0	n/a	n/a	0.0	0	0	0	catFR3	0	R1236J
90.459	1.6	1157940	PRACTICE_ORIENT	n/a	n/a	n/a	n/a	-999	0	-1	[0, 0, 0]	n/a	0	0	0	n/a	n/a	0.0	0	0	0	catFR3	0	R1236J
92.06	2.217	1159541	PRACTICE_ORIENT_OFF	n/a	n/a	n/a	n/a	-999	0	-1	[0, 0, 0]	n/a	0	0	0	n/a	n/a	0.0	0	0	0	catFR3	0	R1236J
94.277	1.6	1161758	PRACTICE_WORD	n/a	n/a	TONGUE	n/a	1	0	-1	[0, 0, 0]	n/a	0	0	0	n/a	n/a	0.0	0	0	0	catFR3	0	R1236J
95.894	0.883	1163375	PRACTICE_WORD_OFF	n/a	n/a	TONGUE	n/a	-999	0	-1	[0, 0, 0]	n/a	0	0	0	n/a	n/a	0.0	0	0	0	catFR3	0	R1236J
96.777	1.6	1164258	PRACTICE_WORD	n/a	n/a	BEAM	n/a	2	0	-1	[0, 0, 0]	n/a	0	0	0	n/a	n/a	0.0	0	0	0	catFR3	0	R1236J
98.393	0.902	1165874	PRACTICE_WORD_OFF	n/a	n/a	BEAM	n/a	-999	0	-1	[0, 0, 0]	n/a	0	0	0	n/a	n/a	0.0	0	0	0	catFR3	0	R1236J
99.295	1.6	1166776	PRACTICE_WORD	n/a	n/a	WAGON	n/a	3	0	-1	[0, 0, 0]	n/a	0	0	0	n/a	n/a	0.0	0	0	0	catFR3	0	R1236J
100.911	0.834	1168392	PRACTICE_WORD_OFF	n/a	n/a	WAGON	n/a	-999	0	-1	[0, 0, 0]	n/a	0	0	0	n/a	n/a	0.0	0	0	0	catFR3	0	R1236J
101.745	1.6	1169226	PRACTICE_WORD	n/a	n/a	RING	n/a	4	0	-1	[0, 0, 0]	n/a	0	0	0	n/a	n/a	0.0	0	0	0	catFR3	0	R1236J
103.362	0.833	1170843	PRACTICE_WORD_OFF	n/a	n/a	RING	n/a	-999	0	-1	[0, 0, 0]	n/a	0	0	0	n/a	n/a	0.0	0	0	0	catFR3	0	R1236J
104.195	1.6	1171676	PRACTICE_WORD	n/a	n/a	WATCH	n/a	5	0	-1	[0, 0, 0]	n/a	0	0	0	n/a	n/a	0.0	0	0	0	catFR3	0	R1236J
105.812	0.832	1173293	PRACTICE_WORD_OFF	n/a	n/a	WATCH	n/a	-999	0	-1	[0, 0, 0]	n/a	0	0	0	n/a	n/a	0.0	0	0	0	catFR3	0	R1236J
106.644	1.6	1174125	PRACTICE_WORD	n/a	n/a	CHEST	n/a	6	0	-1	[0, 0, 0]	n/a	0	0	0	n/a	n/a	0.0	0	0	0	catFR3	0	R1236J
108.245	0.884	1175726	PRACTICE_WORD_OFF	n/a	n/a	CHEST	n/a	-999	0	-1	[0, 0, 0]	n/a	0	0	0	n/a	n/a	0.0	0	0	0	catFR3	0	R1236J
109.129	1.6	1176610	PRACTICE_WORD	n/a	n/a	FLOOD	n/a	7	0	-1	[0, 0, 0]	n/a	0	0	0	n/a	n/a	0.0	0	0	0	catFR3	0	R1236J
110.746	0.95	1178227	PRACTICE_WORD_OFF	n/a	n/a	FLOOD	n/a	-999	0	-1	[0, 0, 0]	n/a	0	0	0	n/a	n/a	0.0	0	0	0	catFR3	0	R1236J
111.696	1.6	1179177	PRACTICE_WORD	n/a	n/a	IRON	n/a	8	0	-1	[0, 0, 0]	n/a	0	0	0	n/a	n/a	0.0	0	0	0	catFR3	0	R1236J
113.313	1.0	1180794	PRACTICE_WORD_OFF	n/a	n/a	IRON	n/a	-999	0	-1	[0, 0, 0]	n/a	0	0	0	n/a	n/a	0.0	0	0	0	catFR3	0	R1236J
114.313	1.6	1181794	PRACTICE_WORD	n/a	n/a	CAMEL	n/a	9	0	-1	[0, 0, 0]	n/a	0	0	0	n/a	n/a	0.0	0	0	0	catFR3	0	R1236J
115.93	0.783	1183411	PRACTICE_WORD_OFF	n/a	n/a	CAMEL	n/a	-999	0	-1	[0, 0, 0]	n/a	0	0	0	n/a	n/a	0.0	0	0	0	catFR3	0	R1236J
116.713	1.6	1184194	PRACTICE_WORD	n/a	n/a	RHINO	n/a	10	0	-1	[0, 0, 0]	n/a	0	0	0	n/a	n/a	0.0	0	0	0	catFR3	0	R1236J
118.33	0.934	1185811	PRACTICE_WORD_OFF	n/a	n/a	RHINO	n/a	-999	0	-1	[0, 0, 0]	n/a	0	0	0	n/a	n/a	0.0	0	0	0	catFR3	0	R1236J
119.264	1.6	1186745	PRACTICE_WORD	n/a	n/a	COTTON	n/a	11	0	-1	[0, 0, 0]	n/a	0	0	0	n/a	n/a	0.0	0	0	0	catFR3	0	R1236J
120.881	0.916	1188362	PRACTICE_WORD_OFF	n/a	n/a	COTTON	n/a	-999	0	-1	[0, 0, 0]	n/a	0	0	0	n/a	n/a	0.0	0	0	0	catFR3	0	R1236J
121.797	1.6	1189278	PRACTICE_WORD	n/a	n/a	ATTIC	n/a	12	0	-1	[0, 0, 0]	n/a	0	0	0	n/a	n/a	0.0	0	0	0	catFR3	0	R1236J
123.414	0.0	1190895	ENCODING_END	n/a	n/a	n/a	n/a	-999	0	-1	[0, 0, 0]	n/a	0	0	0	n/a	n/a	0.0	0	0	0	catFR3	0	R1236J
123.414	0.0	1190895	PRACTICE_WORD_OFF	n/a	n/a	ATTIC	n/a	-999	0	-1	[0, 0, 0]	n/a	0	0	0	n/a	n/a	0.0	0	0	0	catFR3	0	R1236J
123.414	0.0	1190895	DISTRACT_START	n/a	n/a	n/a	n/a	-999	0	-1	[0, 0, 0]	n/a	0	0	0	n/a	n/a	0.0	0	0	0	catFR3	0	R1236J
123.414	0.016	1190895	START	n/a	n/a	n/a	n/a	-999	0	-1	[-999, -999, -999]	n/a	0	0	0	n/a	n/a	0.0	0	0	0	catFR3	0	R1236J
123.43	3.868	1190911	PROB	3.835	n/a	n/a	n/a	-999	0	-1	[2, 4, 9]	15	0	0	0	n/a	n/a	0.0	0	0	0	catFR3	0	R1236J
127.298	2.75	1194779	PROB	2.719	n/a	n/a	n/a	-999	0	-1	[1, 2, 5]	8	0	0	0	n/a	n/a	0.0	0	0	0	catFR3	0	R1236J
130.048	3.784	1197529	PROB	3.753	n/a	n/a	n/a	-999	0	-1	[2, 6, 9]	17	0	0	0	n/a	n/a	0.0	0	0	0	catFR3	0	R1236J
133.832	2.534	1201313	PROB	2.505	n/a	n/a	n/a	-999	0	-1	[2, 4, 3]	9	0	0	0	n/a	n/a	0.0	0	0	0	catFR3	0	R1236J
136.366	3.534	1203847	PROB	3.498	n/a	n/a	n/a	-999	0	-1	[7, 3, 2]	12	0	0	0	n/a	n/a	0.0	0	0	0	catFR3	0	R1236J
139.9	4.748	1207381	PROB	4.748	n/a	n/a	n/a	-999	0	-1	[3, 7, 9]	20	0	0	0	n/a	n/a	0.0	0	0	0	catFR3	0	R1236J
144.648	0.018	1212129	STOP	n/a	n/a	n/a	n/a	-999	0	-1	[-999, -999, -999]	n/a	0	0	0	n/a	n/a	0.0	0	0	0	catFR3	0	R1236J
144.666	0.668	1212147	DISTRACT_END	n/a	n/a	n/a	n/a	-999	0	-1	[0, 0, 0]	n/a	0	0	0	n/a	n/a	0.0	0	0	0	catFR3	0	R1236J
145.334	0.5	1212815	RETRIEVAL_ORIENT	n/a	n/a	n/a	n/a	-999	0	-1	[0, 0, 0]	n/a	0	0	0	n/a	n/a	0.0	0	0	0	catFR3	0	R1236J
145.851	30.011	1213332	PRACTICE_REC_START	n/a	n/a	n/a	n/a	-999	0	-1	[0, 0, 0]	n/a	0	0	0	n/a	n/a	0.0	0	0	0	catFR3	0	R1236J
175.862	6.943	1243343	PRACTICE_REC_END	n/a	n/a	n/a	n/a	-999	0	-1	[0, 0, 0]	n/a	0	0	0	n/a	n/a	0.0	0	0	0	catFR3	0	R1236J
182.805	0.5	1250286	TRIAL	n/a	n/a	n/a	n/a	-999	0	1	[0, 0, 0]	n/a	0	0	0	n/a	n/a	0.0	0	0	0	catFR3	0	R1236J
183.305	10.0	1250786	COUNTDOWN_START	n/a	n/a	n/a	n/a	-999	0	1	[0, 0, 0]	n/a	0	0	0	n/a	n/a	0.0	0	0	0	catFR3	0	R1236J
193.733	0.007	1261214	COUNTDOWN_END	n/a	n/a	n/a	n/a	-999	0	1	[0, 0, 0]	n/a	0	0	0	n/a	n/a	0.0	0	0	0	catFR3	0	R1236J
193.74	1.6	1261221	ORIENT	n/a	n/a	n/a	n/a	-999	0	1	[0, 0, 0]	n/a	0	0	0	n/a	n/a	0.0	0	0	0	catFR3	0	R1236J
195.357	1.883	1262838	ORIENT_OFF	n/a	n/a	n/a	n/a	-999	0	1	[0, 0, 0]	n/a	0	0	0	n/a	n/a	0.0	0	0	0	catFR3	0	R1236J
197.24	1.6	1264721	WORD	n/a	wordpools/wordpool.txt	HAND	BodyParts	1	1	1	[0, 0, 0]	n/a	0	0	0	n/a	n/a	0.0	0	0	0	catFR3	0	R1236J
198.857	0.783	1266338	WORD_OFF	n/a	n/a	HAND	n/a	1	0	1	[0, 0, 0]	n/a	0	0	0	n/a	n/a	0.0	0	0	0	catFR3	0	R1236J
199.64	1.6	1267121	WORD	n/a	wordpools/wordpool.txt	KNEE	BodyParts	2	1	1	[0, 0, 0]	n/a	0	0	0	n/a	n/a	0.0	0	0	0	catFR3	0	R1236J
201.258	1.0	1268739	WORD_OFF	n/a	n/a	KNEE	n/a	2	0	1	[0, 0, 0]	n/a	0	0	0	n/a	n/a	0.0	0	0	0	catFR3	0	R1236J
202.258	1.6	1269739	WORD	n/a	wordpools/wordpool.txt	SPIDER	Insects	3	0	1	[0, 0, 0]	n/a	0	0	0	n/a	n/a	0.0	0	0	0	catFR3	0	R1236J
203.875	0.916	1271356	WORD_OFF	n/a	n/a	SPIDER	n/a	3	0	1	[0, 0, 0]	n/a	0	0	0	n/a	n/a	0.0	0	0	0	catFR3	0	R1236J
204.791	1.6	1272272	WORD	n/a	wordpools/wordpool.txt	CRICKET	Insects	4	1	1	[0, 0, 0]	n/a	0	0	0	n/a	n/a	0.0	0	0	0	catFR3	0	R1236J
206.407	0.851	1273888	WORD_OFF	n/a	n/a	CRICKET	n/a	4	0	1	[0, 0, 0]	n/a	0	0	0	n/a	n/a	0.0	0	0	0	catFR3	0	R1236J
207.258	1.6	1274739	WORD	n/a	wordpools/wordpool.txt	FINCH	Birds	5	1	1	[0, 0, 0]	n/a	0	0	0	n/a	n/a	0.0	0	0	0	catFR3	0	R1236J
208.875	0.766	1276356	WORD_OFF	n/a	n/a	FINCH	n/a	5	0	1	[0, 0, 0]	n/a	0	0	0	n/a	n/a	0.0	0	0	0	catFR3	0	R1236J
209.641	1.6	1277122	WORD	n/a	wordpools/wordpool.txt	ROBIN	Birds	6	0	1	[0, 0, 0]	n/a	0	0	0	n/a	n/a	0.0	0	0	0	catFR3	0	R1236J
211.259	0.883	1278740	WORD_OFF	n/a	n/a	ROBIN	n/a	6	0	1	[0, 0, 0]	n/a	0	0	0	n/a	n/a	0.0	0	0	0	catFR3	0	R1236J
212.142	1.6	1279623	WORD	n/a	wordpools/wordpool.txt	ELBOW	BodyParts	7	1	1	[0, 0, 0]	n/a	0	0	0	n/a	n/a	0.0	0	0	0	catFR3	0	R1236J
213.759	0.766	1281240	WORD_OFF	n/a	n/a	ELBOW	n/a	7	0	1	[0, 0, 0]	n/a	0	0	0	n/a	n/a	0.0	0	0	0	catFR3	0	R1236J
214.525	1.6	1282006	WORD	n/a	wordpools/wordpool.txt	NOSE	BodyParts	8	0	1	[0, 0, 0]	n/a	0	0	0	n/a	n/a	0.0	0	0	0	catFR3	0	R1236J
216.143	1.0	1283624	WORD_OFF	n/a	n/a	NOSE	n/a	8	0	1	[0, 0, 0]	n/a	0	0	0	n/a	n/a	0.0	0	0	0	catFR3	0	R1236J
217.143	1.6	1284624	WORD	n/a	wordpools/wordpool.txt	LADYBUG	Insects	9	0	1	[0, 0, 0]	n/a	0	0	0	n/a	n/a	0.0	0	0	0	catFR3	0	R1236J
218.76	0.849	1286241	WORD_OFF	n/a	n/a	LADYBUG	n/a	9	0	1	[0, 0, 0]	n/a	0	0	0	n/a	n/a	0.0	0	0	0	catFR3	0	R1236J
219.609	1.6	1287090	WORD	n/a	wordpools/wordpool.txt	BEETLE	Insects	10	0	1	[0, 0, 0]	n/a	0	0	0	n/a	n/a	0.0	0	0	0	catFR3	0	R1236J
221.227	0.783	1288708	WORD_OFF	n/a	n/a	BEETLE	n/a	10	0	1	[0, 0, 0]	n/a	0	0	0	n/a	n/a	0.0	0	0	0	catFR3	0	R1236J
222.01	1.6	1289491	WORD	n/a	wordpools/wordpool.txt	DUCK	Birds	11	0	1	[0, 0, 0]	n/a	0	0	0	n/a	n/a	0.0	0	0	0	catFR3	0	R1236J
223.626	0.8	1291107	WORD_OFF	n/a	n/a	DUCK	n/a	11	0	1	[0, 0, 0]	n/a	0	0	0	n/a	n/a	0.0	0	0	0	catFR3	0	R1236J
224.426	1.6	1291907	WORD	n/a	wordpools/wordpool.txt	BLUEBIRD	Birds	12	1	1	[0, 0, 0]	n/a	0	0	0	n/a	n/a	0.0	0	0	0	catFR3	0	R1236J
226.027	0.0	1293508	ENCODING_END	n/a	n/a	n/a	n/a	-999	0	1	[0, 0, 0]	n/a	0	0	0	n/a	n/a	0.0	0	0	0	catFR3	0	R1236J
226.027	0.057	1293508	WORD_OFF	n/a	n/a	BLUEBIRD	n/a	12	0	1	[0, 0, 0]	n/a	0	0	0	n/a	n/a	0.0	0	0	0	catFR3	0	R1236J
226.084	0.0	1293565	DISTRACT_START	n/a	n/a	n/a	n/a	-999	0	1	[0, 0, 0]	n/a	0	0	0	n/a	n/a	0.0	0	0	0	catFR3	0	R1236J
226.084	0.01	1293565	START	n/a	n/a	n/a	n/a	-999	0	1	[-999, -999, -999]	n/a	0	0	0	n/a	n/a	0.0	0	0	0	catFR3	0	R1236J
226.094	3.634	1293575	PROB	3.599	n/a	n/a	n/a	-999	0	1	[4, 7, 2]	13	0	0	0	n/a	n/a	0.0	0	0	0	catFR3	0	R1236J
229.728	4.849	1297209	PROB	4.813	n/a	n/a	n/a	-999	0	1	[4, 9, 6]	19	0	0	0	n/a	n/a	0.0	0	0	0	catFR3	0	R1236J
234.577	2.518	1302058	PROB	2.484	n/a	n/a	n/a	-999	0	1	[2, 8, 1]	11	0	0	0	n/a	n/a	0.0	0	0	0	catFR3	0	R1236J
237.095	5.268	1304576	PROB	5.23	n/a	n/a	n/a	-999	0	1	[3, 8, 5]	16	0	0	0	n/a	n/a	0.0	0	0	0	catFR3	0	R1236J
242.363	2.967	1309844	PROB	2.936	n/a	n/a	n/a	-999	0	1	[5, 5, 3]	13	0	0	0	n/a	n/a	0.0	0	0	0	catFR3	0	R1236J
245.33	3.354	1312811	PROB	3.354	n/a	n/a	n/a	-999	0	1	[4, 6, 1]	11	0	0	0	n/a	n/a	0.0	0	0	0	catFR3	0	R1236J
248.684	0.013	1316165	STOP	n/a	n/a	n/a	n/a	-999	0	1	[-999, -999, -999]	n/a	0	0	0	n/a	n/a	0.0	0	0	0	catFR3	0	R1236J
248.697	0.633	1316178	DISTRACT_END	n/a	n/a	n/a	n/a	-999	0	1	[0, 0, 0]	n/a	0	0	0	n/a	n/a	0.0	0	0	0	catFR3	0	R1236J
249.33	0.5	1316811	RETRIEVAL_ORIENT	n/a	n/a	n/a	n/a	-999	0	1	[0, 0, 0]	n/a	0	0	0	n/a	n/a	0.0	0	0	0	catFR3	0	R1236J
249.848	4.206	1317329	REC_START	n/a	n/a	n/a	n/a	-999	0	1	[0, 0, 0]	n/a	0	0	0	n/a	n/a	0.0	0	0	0	catFR3	0	R1236J
254.054	1.326	1321535	REC_WORD	4.206	n/a	FINCH	Birds	5	1	1	[0, 0, 0]	n/a	0	0	0	n/a	n/a	0.0	0	0	0	catFR3	0	R1236J
255.38	4.031	1322861	REC_WORD	5.532	n/a	BLUEBIRD	Birds	12	1	1	[0, 0, 0]	n/a	0	0	0	n/a	n/a	0.0	0	0	0	catFR3	0	R1236J
259.411	1.118	1326892	REC_WORD	9.563	n/a	HAND	BodyParts	1	1	1	[0, 0, 0]	n/a	0	0	0	n/a	n/a	0.0	0	0	0	catFR3	0	R1236J
260.529	1.357	1328010	REC_WORD	10.681	n/a	KNEE	BodyParts	2	1	1	[0, 0, 0]	n/a	0	0	0	n/a	n/a	0.0	0	0	0	catFR3	0	R1236J
261.886	6.702	1329367	REC_WORD	12.038	n/a	ELBOW	BodyParts	7	1	1	[0, 0, 0]	n/a	0	0	0	n/a	n/a	0.0	0	0	0	catFR3	0	R1236J
268.588	4.104	1336069	REC_WORD	18.74	n/a	CRICKET	Insects	4	1	1	[0, 0, 0]	n/a	0	0	0	n/a	n/a	0.0	0	0	0	catFR3	0	R1236J
272.692	7.168	1340173	REC_WORD	22.844	n/a	ROACH	n/a	-999	0	1	[0, 0, 0]	n/a	0	0	0	n/a	n/a	0.0	0	0	0	catFR3	0	R1236J
279.86	4.492	1347341	REC_END	n/a	n/a	n/a	n/a	-999	0	1	[0, 0, 0]	n/a	0	0	0	n/a	n/a	0.0	0	0	0	catFR3	0	R1236J
284.352	0.5	1351833	TRIAL	n/a	n/a	n/a	n/a	-999	0	2	[0, 0, 0]	n/a	0	0	0	n/a	n/a	0.0	0	0	0	catFR3	0	R1236J
284.852	10.0	1352333	COUNTDOWN_START	n/a	n/a	n/a	n/a	-999	0	2	[0, 0, 0]	n/a	0	0	0	n/a	n/a	0.0	0	0	0	catFR3	0	R1236J
295.28	0.007	1362761	COUNTDOWN_END	n/a	n/a	n/a	n/a	-999	0	2	[0, 0, 0]	n/a	0	0	0	n/a	n/a	0.0	0	0	0	catFR3	0	R1236J
295.287	1.6	1362768	ORIENT	n/a	n/a	n/a	n/a	-999	0	2	[0, 0, 0]	n/a	0	0	0	n/a	n/a	0.0	0	0	0	catFR3	0	R1236J
296.903	2.201	1364384	ORIENT_OFF	n/a	n/a	n/a	n/a	-999	0	2	[0, 0, 0]	n/a	0	0	0	n/a	n/a	0.0	0	0	0	catFR3	0	R1236J
299.104	1.6	1366585	WORD	n/a	wordpools/wordpool.txt	BARBIE	Toys	1	1	2	[0, 0, 0]	n/a	0	0	0	n/a	n/a	0.0	0	0	0	catFR3	0	R1236J
300.721	1.0	1368202	WORD_OFF	n/a	n/a	BARBIE	n/a	1	0	2	[0, 0, 0]	n/a	0	0	0	n/a	n/a	0.0	0	0	0	catFR3	0	R1236J
301.721	1.6	1369202	WORD	n/a	wordpools/wordpool.txt	FRISBEE	Toys	2	1	2	[0, 0, 0]	n/a	0	0	0	n/a	n/a	0.0	0	0	0	catFR3	0	R1236J
303.338	0.816	1370819	WORD_OFF	n/a	n/a	FRISBEE	n/a	2	0	2	[0, 0, 0]	n/a	0	0	0	n/a	n/a	0.0	0	0	0	catFR3	0	R1236J
304.154	1.6	1371635	WORD	n/a	wordpools/wordpool.txt	HAMMER	Tools	3	0	2	[0, 0, 0]	n/a	0	0	0	n/a	n/a	0.0	0	0	0	catFR3	0	R1236J
305.771	0.849	1373252	WORD_OFF	n/a	n/a	HAMMER	n/a	3	0	2	[0, 0, 0]	n/a	0	0	0	n/a	n/a	0.0	0	0	0	catFR3	0	R1236J
306.62	1.6	1374101	WORD	n/a	wordpools/wordpool.txt	DRILL	Tools	4	1	2	[0, 0, 0]	n/a	0	0	0	n/a	n/a	0.0	0	0	0	catFR3	0	R1236J
308.238	0.834	1375719	WORD_OFF	n/a	n/a	DRILL	n/a	4	0	2	[0, 0, 0]	n/a	0	0	0	n/a	n/a	0.0	0	0	0	catFR3	0	R1236J
309.072	1.6	1376553	WORD	n/a	wordpools/wordpool.txt	RULER	OfficeSupplies	5	1	2	[0, 0, 0]	n/a	0	0	0	n/a	n/a	0.0	0	0	0	catFR3	0	R1236J
310.689	0.949	1378170	WORD_OFF	n/a	n/a	RULER	n/a	5	0	2	[0, 0, 0]	n/a	0	0	0	n/a	n/a	0.0	0	0	0	catFR3	0	R1236J
311.638	1.6	1379119	WORD	n/a	wordpools/wordpool.txt	PAPER	OfficeSupplies	6	1	2	[0, 0, 0]	n/a	0	0	0	n/a	n/a	0.0	0	0	0	catFR3	0	R1236J
313.256	0.866	1380737	WORD_OFF	n/a	n/a	PAPER	n/a	6	0	2	[0, 0, 0]	n/a	0	0	0	n/a	n/a	0.0	0	0	0	catFR3	0	R1236J
314.122	1.6	1381603	WORD	n/a	wordpools/wordpool.txt	PUZZLE	Toys	7	1	2	[0, 0, 0]	n/a	0	0	0	n/a	n/a	0.0	0	0	0	catFR3	0	R1236J
315.739	0.967	1383220	WORD_OFF	n/a	n/a	PUZZLE	n/a	7	0	2	[0, 0, 0]	n/a	0	0	0	n/a	n/a	0.0	0	0	0	catFR3	0	R1236J
316.706	1.6	1384187	WORD	n/a	wordpools/wordpool.txt	BASEBALL	Toys	8	1	2	[0, 0, 0]	n/a	0	0	0	n/a	n/a	0.0	0	0	0	catFR3	0	R1236J
318.323	0.933	1385804	WORD_OFF	n/a	n/a	BASEBALL	n/a	8	0	2	[0, 0, 0]	n/a	0	0	0	n/a	n/a	0.0	0	0	0	catFR3	0	R1236J
319.256	1.6	1386737	WORD	n/a	wordpools/wordpool.txt	CROWBAR	Tools	9	1	2	[0, 0, 0]	n/a	0	0	0	n/a	n/a	0.0	0	0	0	catFR3	0	R1236J
320.873	0.867	1388354	WORD_OFF	n/a	n/a	CROWBAR	n/a	9	0	2	[0, 0, 0]	n/a	0	0	0	n/a	n/a	0.0	0	0	0	catFR3	0	R1236J
321.74	1.6	1389221	WORD	n/a	wordpools/wordpool.txt	PLIERS	Tools	10	0	2	[0, 0, 0]	n/a	0	0	0	n/a	n/a	0.0	0	0	0	catFR3	0	R1236J
323.357	0.8	1390838	WORD_OFF	n/a	n/a	PLIERS	n/a	10	0	2	[0, 0, 0]	n/a	0	0	0	n/a	n/a	0.0	0	0	0	catFR3	0	R1236J
324.157	1.6	1391638	WORD	n/a	wordpools/wordpool.txt	BINDER	OfficeSupplies	11	0	2	[0, 0, 0]	n/a	0	0	0	n/a	n/a	0.0	0	0	0	catFR3	0	R1236J
325.774	0.882	1393255	WORD_OFF	n/a	n/a	BINDER	n/a	11	0	2	[0, 0, 0]	n/a	0	0	0	n/a	n/a	0.0	0	0	0	catFR3	0	R1236J
326.656	1.6	1394137	WORD	n/a	wordpools/wordpool.txt	TAPE	OfficeSupplies	12	0	2	[0, 0, 0]	n/a	0	0	0	n/a	n/a	0.0	0	0	0	catFR3	0	R1236J
328.257	0.001	1395738	WORD_OFF	n/a	n/a	TAPE	n/a	12	0	2	[0, 0, 0]	n/a	0	0	0	n/a	n/a	0.0	0	0	0	catFR3	0	R1236J
328.258	0.055	1395739	ENCODING_END	n/a	n/a	n/a	n/a	-999	0	2	[0, 0, 0]	n/a	0	0	0	n/a	n/a	0.0	0	0	0	catFR3	0	R1236J
328.313	0.0	1395794	DISTRACT_START	n/a	n/a	n/a	n/a	-999	0	2	[0, 0, 0]	n/a	0	0	0	n/a	n/a	0.0	0	0	0	catFR3	0	R1236J
328.313	0.011	1395794	START	n/a	n/a	n/a	n/a	-999	0	2	[-999, -999, -999]	n/a	0	0	0	n/a	n/a	0.0	0	0	0	catFR3	0	R1236J
328.324	2.651	1395805	PROB	2.621	n/a	n/a	n/a	-999	0	2	[7, 1, 3]	11	0	0	0	n/a	n/a	0.0	0	0	0	catFR3	0	R1236J
330.975	3.699	1398456	PROB	3.666	n/a	n/a	n/a	-999	0	2	[2, 7, 9]	18	0	0	0	n/a	n/a	0.0	0	0	0	catFR3	0	R1236J
334.674	2.817	1402155	PROB	2.79	n/a	n/a	n/a	-999	0	2	[2, 7, 2]	11	0	0	0	n/a	n/a	0.0	0	0	0	catFR3	0	R1236J
337.491	3.468	1404972	PROB	3.439	n/a	n/a	n/a	-999	0	2	[5, 1, 4]	10	0	0	0	n/a	n/a	0.0	0	0	0	catFR3	0	R1236J
340.959	3.75	1408440	PROB	3.72	n/a	n/a	n/a	-999	0	2	[6, 7, 6]	22	0	0	0	n/a	n/a	0.0	0	0	0	catFR3	0	R1236J
344.709	3.722	1412190	PROB	3.722	n/a	n/a	n/a	-999	0	2	[7, 8, 7]	22	0	0	0	n/a	n/a	0.0	0	0	0	catFR3	0	R1236J
348.431	0.012	1415912	STOP	n/a	n/a	n/a	n/a	-999	0	2	[-999, -999, -999]	n/a	0	0	0	n/a	n/a	0.0	0	0	0	catFR3	0	R1236J
348.443	0.584	1415924	DISTRACT_END	n/a	n/a	n/a	n/a	-999	0	2	[0, 0, 0]	n/a	0	0	0	n/a	n/a	0.0	0	0	0	catFR3	0	R1236J
349.027	0.5	1416508	RETRIEVAL_ORIENT	n/a	n/a	n/a	n/a	-999	0	2	[0, 0, 0]	n/a	0	0	0	n/a	n/a	0.0	0	0	0	catFR3	0	R1236J
349.543	1.169	1417024	REC_START	n/a	n/a	n/a	n/a	-999	0	2	[0, 0, 0]	n/a	0	0	0	n/a	n/a	0.0	0	0	0	catFR3	0	R1236J
350.712	1.018	1418193	REC_WORD	1.169	n/a	CROWBAR	Tools	9	1	2	[0, 0, 0]	n/a	0	0	0	n/a	n/a	0.0	0	0	0	catFR3	0	R1236J
351.73	2.979	1419211	REC_WORD	2.187	n/a	DRILL	Tools	4	1	2	[0, 0, 0]	n/a	0	0	0	n/a	n/a	0.0	0	0	0	catFR3	0	R1236J
354.709	1.534	1422190	REC_WORD	5.166	n/a	RULER	OfficeSupplies	5	1	2	[0, 0, 0]	n/a	0	0	0	n/a	n/a	0.0	0	0	0	catFR3	0	R1236J
356.243	1.34	1423724	REC_WORD	6.7	n/a	PAPER	OfficeSupplies	6	1	2	[0, 0, 0]	n/a	0	0	0	n/a	n/a	0.0	0	0	0	catFR3	0	R1236J
357.583	1.8	1425064	REC_WORD	8.04	n/a	BARBIE	Toys	1	1	2	[0, 0, 0]	n/a	0	0	0	n/a	n/a	0.0	0	0	0	catFR3	0	R1236J
359.383	1.151	1426864	REC_WORD	9.84	n/a	BASEBALL	Toys	8	1	2	[0, 0, 0]	n/a	0	0	0	n/a	n/a	0.0	0	0	0	catFR3	0	R1236J
360.534	9.269	1428015	REC_WORD	10.991	n/a	FRISBEE	Toys	2	1	2	[0, 0, 0]	n/a	0	0	0	n/a	n/a	0.0	0	0	0	catFR3	0	R1236J
369.803	4.163	1437284	REC_WORD	20.26	n/a	PUZZLE	Toys	7	1	2	[0, 0, 0]	n/a	0	0	0	n/a	n/a	0.0	0	0	0	catFR3	0	R1236J
373.966	5.589	1441447	REC_WORD	24.423	n/a	BLOCKS	n/a	-999	0	2	[0, 0, 0]	n/a	0	0	0	n/a	n/a	0.0	0	0	0	catFR3	0	R1236J
379.555	4.21	1447036	REC_END	n/a	n/a	n/a	n/a	-999	0	2	[0, 0, 0]	n/a	0	0	0	n/a	n/a	0.0	0	0	0	catFR3	0	R1236J
383.765	0.5	1451246	TRIAL	n/a	n/a	n/a	n/a	-999	0	3	[0, 0, 0]	n/a	0	0	0	n/a	n/a	0.0	0	0	0	catFR3	0	R1236J
384.265	10.0	1451746	COUNTDOWN_START	n/a	n/a	n/a	n/a	-999	0	3	[0, 0, 0]	n/a	0	0	0	n/a	n/a	0.0	0	0	0	catFR3	0	R1236J
394.693	0.007	1462174	COUNTDOWN_END	n/a	n/a	n/a	n/a	-999	0	3	[0, 0, 0]	n/a	0	0	0	n/a	n/a	0.0	0	0	0	catFR3	0	R1236J
394.7	1.6	1462181	ORIENT	n/a	n/a	n/a	n/a	-999	0	3	[0, 0, 0]	n/a	0	0	0	n/a	n/a	0.0	0	0	0	catFR3	0	R1236J
396.316	2.15	1463797	ORIENT_OFF	n/a	n/a	n/a	n/a	-999	0	3	[0, 0, 0]	n/a	0	0	0	n/a	n/a	0.0	0	0	0	catFR3	0	R1236J
398.466	1.6	1465947	WORD	n/a	wordpools/wordpool.txt	HICKORY	Trees	1	1	3	[0, 0, 0]	n/a	0	0	0	n/a	n/a	0.0	0	0	0	catFR3	0	R1236J
400.067	0.917	1467548	WORD_OFF	n/a	n/a	HICKORY	n/a	1	0	3	[0, 0, 0]	n/a	0	0	0	n/a	n/a	0.0	0	0	0	catFR3	0	R1236J
400.984	1.6	1468465	WORD	n/a	wordpools/wordpool.txt	ELM	Trees	2	1	3	[0, 0, 0]	n/a	0	0	0	n/a	n/a	0.0	0	0	0	catFR3	0	R1236J
402.6	0.833	1470081	WORD_OFF	n/a	n/a	ELM	n/a	2	0	3	[0, 0, 0]	n/a	0	0	0	n/a	n/a	0.0	0	0	0	catFR3	0	R1236J
403.433	1.6	1470914	WORD	n/a	wordpools/wordpool.txt	TURTLE	OceanAnimals	3	0	3	[0, 0, 0]	n/a	0	0	0	n/a	n/a	0.0	0	0	0	catFR3	0	R1236J
405.051	0.8	1472532	WORD_OFF	n/a	n/a	TURTLE	n/a	3	0	3	[0, 0, 0]	n/a	0	0	0	n/a	n/a	0.0	0	0	0	catFR3	0	R1236J
405.851	1.6	1473332	WORD	n/a	wordpools/wordpool.txt	FISH	OceanAnimals	4	0	3	[0, 0, 0]	n/a	0	0	0	n/a	n/a	0.0	0	0	0	catFR3	0	R1236J
407.467	0.918	1474948	WORD_OFF	n/a	n/a	FISH	n/a	4	0	3	[0, 0, 0]	n/a	0	0	0	n/a	n/a	0.0	0	0	0	catFR3	0	R1236J
408.385	1.6	1475866	WORD	n/a	wordpools/wordpool.txt	MILK	Beverages	5	1	3	[0, 0, 0]	n/a	0	0	0	n/a	n/a	0.0	0	0	0	catFR3	0	R1236J
410.002	0.816	1477483	WORD_OFF	n/a	n/a	MILK	n/a	5	0	3	[0, 0, 0]	n/a	0	0	0	n/a	n/a	0.0	0	0	0	catFR3	0	R1236J
410.818	1.6	1478299	WORD	n/a	wordpools/wordpool.txt	COFFEE	Beverages	6	0	3	[0, 0, 0]	n/a	0	0	0	n/a	n/a	0.0	0	0	0	catFR3	0	R1236J
412.434	0.902	1479915	WORD_OFF	n/a	n/a	COFFEE	n/a	6	0	3	[0, 0, 0]	n/a	0	0	0	n/a	n/a	0.0	0	0	0	catFR3	0	R1236J
413.336	1.6	1480817	WORD	n/a	wordpools/wordpool.txt	DOLPHIN	OceanAnimals	7	0	3	[0, 0, 0]	n/a	0	0	0	n/a	n/a	0.0	0	0	0	catFR3	0	R1236J
414.952	0.834	1482433	WORD_OFF	n/a	n/a	DOLPHIN	n/a	7	0	3	[0, 0, 0]	n/a	0	0	0	n/a	n/a	0.0	0	0	0	catFR3	0	R1236J
415.786	1.6	1483267	WORD	n/a	wordpools/wordpool.txt	CRAB	OceanAnimals	8	0	3	[0, 0, 0]	n/a	0	0	0	n/a	n/a	0.0	0	0	0	catFR3	0	R1236J
417.402	0.784	1484883	WORD_OFF	n/a	n/a	CRAB	n/a	8	0	3	[0, 0, 0]	n/a	0	0	0	n/a	n/a	0.0	0	0	0	catFR3	0	R1236J
418.186	1.6	1485667	WORD	n/a	wordpools/wordpool.txt	MAPLE	Trees	9	1	3	[0, 0, 0]	n/a	0	0	0	n/a	n/a	0.0	0	0	0	catFR3	0	R1236J
419.803	0.95	1487284	WORD_OFF	n/a	n/a	MAPLE	n/a	9	0	3	[0, 0, 0]	n/a	0	0	0	n/a	n/a	0.0	0	0	0	catFR3	0	R1236J
420.753	1.6	1488234	WORD	n/a	wordpools/wordpool.txt	WALNUT	Trees	10	1	3	[0, 0, 0]	n/a	0	0	0	n/a	n/a	0.0	0	0	0	catFR3	0	R1236J
422.37	0.9	1489851	WORD_OFF	n/a	n/a	WALNUT	n/a	10	0	3	[0, 0, 0]	n/a	0	0	0	n/a	n/a	0.0	0	0	0	catFR3	0	R1236J
423.27	1.6	1490751	WORD	n/a	wordpools/wordpool.txt	WINE	Beverages	11	1	3	[0, 0, 0]	n/a	0	0	0	n/a	n/a	0.0	0	0	0	catFR3	0	R1236J
424.887	0.782	1492368	WORD_OFF	n/a	n/a	WINE	n/a	11	0	3	[0, 0, 0]	n/a	0	0	0	n/a	n/a	0.0	0	0	0	catFR3	0	R1236J
425.669	1.6	1493150	WORD	n/a	wordpools/wordpool.txt	BEER	Beverages	12	1	3	[0, 0, 0]	n/a	0	0	0	n/a	n/a	0.0	0	0	0	catFR3	0	R1236J
427.287	0.001	1494768	WORD_OFF	n/a	n/a	BEER	n/a	12	0	3	[0, 0, 0]	n/a	0	0	0	n/a	n/a	0.0	0	0	0	catFR3	0	R1236J
427.288	0.056	1494769	ENCODING_END	n/a	n/a	n/a	n/a	-999	0	3	[0, 0, 0]	n/a	0	0	0	n/a	n/a	0.0	0	0	0	catFR3	0	R1236J
427.344	0.0	1494825	DISTRACT_START	n/a	n/a	n/a	n/a	-999	0	3	[0, 0, 0]	n/a	0	0	0	n/a	n/a	0.0	0	0	0	catFR3	0	R1236J
427.344	0.01	1494825	START	n/a	n/a	n/a	n/a	-999	0	3	[-999, -999, -999]	n/a	0	0	0	n/a	n/a	0.0	0	0	0	catFR3	0	R1236J
427.354	3.0	1494835	PROB	2.964	n/a	n/a	n/a	-999	0	3	[1, 3, 9]	13	0	0	0	n/a	n/a	0.0	0	0	0	catFR3	0	R1236J
430.354	4.2	1497835	PROB	4.163	n/a	n/a	n/a	-999	0	3	[6, 1, 5]	12	0	0	0	n/a	n/a	0.0	0	0	0	catFR3	0	R1236J
434.554	3.301	1502035	PROB	3.268	n/a	n/a	n/a	-999	0	3	[2, 6, 7]	15	0	0	0	n/a	n/a	0.0	0	0	0	catFR3	0	R1236J
437.855	3.067	1505336	PROB	3.039	n/a	n/a	n/a	-999	0	3	[2, 1, 7]	10	0	0	0	n/a	n/a	0.0	0	0	0	catFR3	0	R1236J
440.922	3.451	1508403	PROB	3.412	n/a	n/a	n/a	-999	0	3	[9, 5, 4]	18	0	0	0	n/a	n/a	0.0	0	0	0	catFR3	0	R1236J
444.373	3.063	1511854	PROB	3.063	n/a	n/a	n/a	-999	0	3	[2, 2, 9]	13	0	0	0	n/a	n/a	0.0	0	0	0	catFR3	0	R1236J
447.436	0.02	1514917	STOP	n/a	n/a	n/a	n/a	-999	0	3	[-999, -999, -999]	n/a	0	0	0	n/a	n/a	0.0	0	0	0	catFR3	0	R1236J
447.456	0.551	1514937	DISTRACT_END	n/a	n/a	n/a	n/a	-999	0	3	[0, 0, 0]	n/a	0	0	0	n/a	n/a	0.0	0	0	0	catFR3	0	R1236J
448.007	0.5	1515488	RETRIEVAL_ORIENT	n/a	n/a	n/a	n/a	-999	0	3	[0, 0, 0]	n/a	0	0	0	n/a	n/a	0.0	0	0	0	catFR3	0	R1236J
448.523	0.978	1516004	REC_START	n/a	n/a	n/a	n/a	-999	0	3	[0, 0, 0]	n/a	0	0	0	n/a	n/a	0.0	0	0	0	catFR3	0	R1236J
449.501	0.748	1516982	REC_WORD	0.978	n/a	HICKORY	Trees	1	1	3	[0, 0, 0]	n/a	0	0	0	n/a	n/a	0.0	0	0	0	catFR3	0	R1236J
450.249	1.38	1517730	REC_WORD	1.726	n/a	ELM	Trees	2	1	3	[0, 0, 0]	n/a	0	0	0	n/a	n/a	0.0	0	0	0	catFR3	0	R1236J
451.629	3.949	1519110	REC_WORD	3.106	n/a	WALNUT	Trees	10	1	3	[0, 0, 0]	n/a	0	0	0	n/a	n/a	0.0	0	0	0	catFR3	0	R1236J
455.578	0.981	1523059	REC_WORD	7.055	n/a	MILK	Beverages	5	1	3	[0, 0, 0]	n/a	0	0	0	n/a	n/a	0.0	0	0	0	catFR3	0	R1236J
456.559	0.955	1524040	REC_WORD	8.036	n/a	WINE	Beverages	11	1	3	[0, 0, 0]	n/a	0	0	0	n/a	n/a	0.0	0	0	0	catFR3	0	R1236J
457.514	15.271	1524995	REC_WORD	8.991	n/a	BEER	Beverages	12	1	3	[0, 0, 0]	n/a	0	0	0	n/a	n/a	0.0	0	0	0	catFR3	0	R1236J
472.785	4.762	1540266	REC_WORD	24.262	n/a	ASH	n/a	-999	0	3	[0, 0, 0]	n/a	0	0	0	n/a	n/a	0.0	0	0	0	catFR3	0	R1236J
477.547	0.987	1545028	REC_WORD	29.024	n/a	MAPLE	Trees	9	1	3	[0, 0, 0]	n/a	0	0	0	n/a	n/a	0.0	0	0	0	catFR3	0	R1236J
478.534	4.227	1546015	REC_END	n/a	n/a	n/a	n/a	-999	0	3	[0, 0, 0]	n/a	0	0	0	n/a	n/a	0.0	0	0	0	catFR3	0	R1236J
482.761	0.5	1550242	TRIAL	n/a	n/a	n/a	n/a	-999	0	4	[0, 0, 0]	n/a	0	0	0	n/a	n/a	0.0	0	0	0	catFR3	0	R1236J
483.261	10.0	1550742	COUNTDOWN_START	n/a	n/a	n/a	n/a	-999	0	4	[0, 0, 0]	n/a	0	0	0	n/a	n/a	0.0	0	0	0	catFR3	0	R1236J
493.689	0.007	1561170	COUNTDOWN_END	n/a	n/a	n/a	n/a	-999	0	4	[0, 0, 0]	n/a	0	0	0	n/a	n/a	0.0	0	0	0	catFR3	0	R1236J
493.696	1.6	1561177	ORIENT	n/a	n/a	n/a	n/a	-999	0	4	[0, 0, 0]	n/a	0	0	0	n/a	n/a	0.0	0	0	0	catFR3	0	R1236J
495.313	1.983	1562794	ORIENT_OFF	n/a	n/a	n/a	n/a	-999	0	4	[0, 0, 0]	n/a	0	0	0	n/a	n/a	0.0	0	0	0	catFR3	0	R1236J
497.296	1.6	1564777	WORD	n/a	wordpools/wordpool.txt	SANDER	Tools	1	1	4	[0, 0, 0]	n/a	0	0	0	n/a	n/a	0.0	0	0	0	catFR3	0	R1236J
498.913	0.883	1566394	WORD_OFF	n/a	n/a	SANDER	n/a	1	0	4	[0, 0, 0]	n/a	0	0	0	n/a	n/a	0.0	0	0	0	catFR3	0	R1236J
499.796	1.6	1567277	WORD	n/a	wordpools/wordpool.txt	SCREWDRIVER	Tools	2	0	4	[0, 0, 0]	n/a	0	0	0	n/a	n/a	0.0	0	0	0	catFR3	0	R1236J
501.412	0.818	1568893	WORD_OFF	n/a	n/a	SCREWDRIVER	n/a	2	0	4	[0, 0, 0]	n/a	0	0	0	n/a	n/a	0.0	0	0	0	catFR3	0	R1236J
502.23	1.6	1569711	WORD	n/a	wordpools/wordpool.txt	LION	Zoo	3	0	4	[0, 0, 0]	n/a	0	0	0	n/a	n/a	0.0	0	0	0	catFR3	0	R1236J
503.847	0.85	1571328	WORD_OFF	n/a	n/a	LION	n/a	3	0	4	[0, 0, 0]	n/a	0	0	0	n/a	n/a	0.0	0	0	0	catFR3	0	R1236J
504.697	1.6	1572178	WORD	n/a	wordpools/wordpool.txt	GORILLA	Zoo	4	0	4	[0, 0, 0]	n/a	0	0	0	n/a	n/a	0.0	0	0	0	catFR3	0	R1236J
506.314	0.934	1573795	WORD_OFF	n/a	n/a	GORILLA	n/a	4	0	4	[0, 0, 0]	n/a	0	0	0	n/a	n/a	0.0	0	0	0	catFR3	0	R1236J
507.248	1.6	1574729	WORD	n/a	wordpools/wordpool.txt	GNAT	Insects	5	1	4	[0, 0, 0]	n/a	0	0	0	n/a	n/a	0.0	0	0	0	catFR3	0	R1236J
508.865	0.849	1576346	WORD_OFF	n/a	n/a	GNAT	n/a	5	0	4	[0, 0, 0]	n/a	0	0	0	n/a	n/a	0.0	0	0	0	catFR3	0	R1236J
509.714	1.6	1577195	WORD	n/a	wordpools/wordpool.txt	BUTTERFLY	Insects	6	1	4	[0, 0, 0]	n/a	0	0	0	n/a	n/a	0.0	0	0	0	catFR3	0	R1236J
511.331	0.9	1578812	WORD_OFF	n/a	n/a	BUTTERFLY	n/a	6	0	4	[0, 0, 0]	n/a	0	0	0	n/a	n/a	0.0	0	0	0	catFR3	0	R1236J
512.231	1.6	1579712	WORD	n/a	wordpools/wordpool.txt	WRENCH	Tools	7	0	4	[0, 0, 0]	n/a	0	0	0	n/a	n/a	0.0	0	0	0	catFR3	0	R1236J
513.849	0.85	1581330	WORD_OFF	n/a	n/a	WRENCH	n/a	7	0	4	[0, 0, 0]	n/a	0	0	0	n/a	n/a	0.0	0	0	0	catFR3	0	R1236J
514.699	1.6	1582180	WORD	n/a	wordpools/wordpool.txt	RATCHET	Tools	8	1	4	[0, 0, 0]	n/a	0	0	0	n/a	n/a	0.0	0	0	0	catFR3	0	R1236J
516.316	0.816	1583797	WORD_OFF	n/a	n/a	RATCHET	n/a	8	0	4	[0, 0, 0]	n/a	0	0	0	n/a	n/a	0.0	0	0	0	catFR3	0	R1236J
517.132	1.6	1584613	WORD	n/a	wordpools/wordpool.txt	ORANGUTAN	Zoo	9	0	4	[0, 0, 0]	n/a	0	0	0	n/a	n/a	0.0	0	0	0	catFR3	0	R1236J
518.749	0.766	1586230	WORD_OFF	n/a	n/a	ORANGUTAN	n/a	9	0	4	[0, 0, 0]	n/a	0	0	0	n/a	n/a	0.0	0	0	0	catFR3	0	R1236J
519.515	1.6	1586996	WORD	n/a	wordpools/wordpool.txt	CHIMPANZEE	Zoo	10	0	4	[0, 0, 0]	n/a	0	0	0	n/a	n/a	0.0	0	0	0	catFR3	0	R1236J
521.133	0.817	1588614	WORD_OFF	n/a	n/a	CHIMPANZEE	n/a	10	0	4	[0, 0, 0]	n/a	0	0	0	n/a	n/a	0.0	0	0	0	catFR3	0	R1236J
521.95	1.6	1589431	WORD	n/a	wordpools/wordpool.txt	ROACH	Insects	11	0	4	[0, 0, 0]	n/a	0	0	0	n/a	n/a	0.0	0	0	0	catFR3	0	R1236J
523.566	0.801	1591047	WORD_OFF	n/a	n/a	ROACH	n/a	11	0	4	[0, 0, 0]	n/a	0	0	0	n/a	n/a	0.0	0	0	0	catFR3	0	R1236J
524.367	1.6	1591848	WORD	n/a	wordpools/wordpool.txt	BEE	Insects	12	0	4	[0, 0, 0]	n/a	0	0	0	n/a	n/a	0.0	0	0	0	catFR3	0	R1236J
525.983	0.001	1593464	WORD_OFF	n/a	n/a	BEE	n/a	12	0	4	[0, 0, 0]	n/a	0	0	0	n/a	n/a	0.0	0	0	0	catFR3	0	R1236J
525.984	0.077	1593465	ENCODING_END	n/a	n/a	n/a	n/a	-999	0	4	[0, 0, 0]	n/a	0	0	0	n/a	n/a	0.0	0	0	0	catFR3	0	R1236J
526.061	0.0	1593542	DISTRACT_START	n/a	n/a	n/a	n/a	-999	0	4	[0, 0, 0]	n/a	0	0	0	n/a	n/a	0.0	0	0	0	catFR3	0	R1236J
526.061	0.022	1593542	START	n/a	n/a	n/a	n/a	-999	0	4	[-999, -999, -999]	n/a	0	0	0	n/a	n/a	0.0	0	0	0	catFR3	0	R1236J
526.083	6.218	1593564	PROB	6.182	n/a	n/a	n/a	-999	0	4	[5, 6, 4]	14	0	0	0	n/a	n/a	0.0	0	0	0	catFR3	0	R1236J
532.301	4.249	1599782	PROB	4.212	n/a	n/a	n/a	-999	0	4	[8, 7, 2]	17	0	0	0	n/a	n/a	0.0	0	0	0	catFR3	0	R1236J
536.55	2.735	1604031	PROB	2.707	n/a	n/a	n/a	-999	0	4	[4, 1, 4]	9	0	0	0	n/a	n/a	0.0	0	0	0	catFR3	0	R1236J
539.285	3.183	1606766	PROB	3.156	n/a	n/a	n/a	-999	0	4	[9, 9, 4]	22	0	0	0	n/a	n/a	0.0	0	0	0	catFR3	0	R1236J
542.468	3.989	1609949	PROB	3.989	n/a	n/a	n/a	-999	0	4	[7, 9, 7]	23	0	0	0	n/a	n/a	0.0	0	0	0	catFR3	0	R1236J
546.457	0.012	1613938	STOP	n/a	n/a	n/a	n/a	-999	0	4	[-999, -999, -999]	n/a	0	0	0	n/a	n/a	0.0	0	0	0	catFR3	0	R1236J
546.469	0.601	1613950	DISTRACT_END	n/a	n/a	n/a	n/a	-999	0	4	[0, 0, 0]	n/a	0	0	0	n/a	n/a	0.0	0	0	0	catFR3	0	R1236J
547.07	0.5	1614551	RETRIEVAL_ORIENT	n/a	n/a	n/a	n/a	-999	0	4	[0, 0, 0]	n/a	0	0	0	n/a	n/a	0.0	0	0	0	catFR3	0	R1236J
547.586	1.518	1615067	REC_START	n/a	n/a	n/a	n/a	-999	0	4	[0, 0, 0]	n/a	0	0	0	n/a	n/a	0.0	0	0	0	catFR3	0	R1236J
549.104	2.048	1616585	REC_WORD	1.518	n/a	SANDER	Tools	1	1	4	[0, 0, 0]	n/a	0	0	0	n/a	n/a	0.0	0	0	0	catFR3	0	R1236J
551.152	14.63	1618633	REC_WORD	3.566	n/a	RATCHET	Tools	8	1	4	[0, 0, 0]	n/a	0	0	0	n/a	n/a	0.0	0	0	0	catFR3	0	R1236J
565.782	2.035	1633263	REC_WORD	18.196	n/a	BUTTERFLY	Insects	6	1	4	[0, 0, 0]	n/a	0	0	0	n/a	n/a	0.0	0	0	0	catFR3	0	R1236J
567.817	6.193	1635298	REC_WORD	20.231	n/a	MOTH	n/a	-999	0	4	[0, 0, 0]	n/a	0	0	0	n/a	n/a	0.0	0	0	0	catFR3	0	R1236J
574.01	3.587	1641491	REC_WORD	26.424	n/a	GNAT	Insects	5	1	4	[0, 0, 0]	n/a	0	0	0	n/a	n/a	0.0	0	0	0	catFR3	0	R1236J
577.597	4.527	1645078	REC_END	n/a	n/a	n/a	n/a	-999	0	4	[0, 0, 0]	n/a	0	0	0	n/a	n/a	0.0	0	0	0	catFR3	0	R1236J
582.124	0.5	1649605	TRIAL	n/a	n/a	n/a	n/a	-999	0	5	[0, 0, 0]	n/a	0	1	0	n/a	n/a	0.0	0	0	0	catFR3	0	R1236J
582.624	10.0	1650105	COUNTDOWN_START	n/a	n/a	n/a	n/a	-999	0	5	[0, 0, 0]	n/a	0	1	0	n/a	n/a	0.0	0	0	0	catFR3	0	R1236J
593.052	0.007	1660533	COUNTDOWN_END	n/a	n/a	n/a	n/a	-999	0	5	[0, 0, 0]	n/a	0	1	0	n/a	n/a	0.0	0	0	0	catFR3	0	R1236J
593.059	1.6	1660540	ORIENT	n/a	n/a	n/a	n/a	-999	0	5	[0, 0, 0]	n/a	0	1	0	n/a	n/a	0.0	0	0	0	catFR3	0	R1236J
594.675	2.084	1662156	ORIENT_OFF	n/a	n/a	n/a	n/a	-999	0	5	[0, 0, 0]	n/a	0	1	0	n/a	n/a	0.0	0	0	0	catFR3	0	R1236J
596.759	1.6	1664240	WORD	n/a	wordpools/wordpool.txt	MOPED	Vehicles	1	1	5	[0, 0, 0]	n/a	0	1	0	n/a	n/a	0.0	0	0	0	catFR3	0	R1236J
598.376	0.884	1665857	WORD_OFF	n/a	n/a	MOPED	n/a	1	0	5	[0, 0, 0]	n/a	0	1	0	n/a	n/a	0.0	0	0	0	catFR3	0	R1236J
599.26	1.6	1666741	WORD	n/a	wordpools/wordpool.txt	BOAT	Vehicles	2	0	5	[0, 0, 0]	n/a	0	1	0	n/a	n/a	0.0	0	0	0	catFR3	0	R1236J
600.861	0.5	1668342	STIM_ON	n/a	n/a	BOAT	n/a	2	0	5	[0, 0, 0]	n/a	1	1	500	LS4	LS5	500.0	100	50	300	catFR3	0	R1236J
600.877	0.474	1668358	WORD_OFF	n/a	n/a	BOAT	n/a	2	0	5	[0, 0, 0]	n/a	1	1	500	LS4	LS5	500.0	100	50	300	catFR3	0	R1236J
601.351	0.426	1668832	STIM_OFF	n/a	n/a	n/a	n/a	2	0	5	[0, 0, 0]	n/a	0	1	500	LS4	LS5	500.0	100	50	300	catFR3	0	R1236J
601.777	1.6	1669258	WORD	n/a	wordpools/wordpool.txt	VIOLET	Flowers	3	1	5	[0, 0, 0]	n/a	0	1	0	n/a	n/a	0.0	0	0	0	catFR3	0	R1236J
603.373	0.5	1670854	STIM_ON	n/a	n/a	VIOLET	n/a	3	1	5	[0, 0, 0]	n/a	1	1	500	LS4	LS5	500.0	100	50	300	catFR3	0	R1236J
603.393	0.47	1670874	WORD_OFF	n/a	n/a	VIOLET	n/a	3	0	5	[0, 0, 0]	n/a	1	1	500	LS4	LS5	500.0	100	50	300	catFR3	0	R1236J
603.863	0.431	1671344	STIM_OFF	n/a	n/a	n/a	n/a	3	0	5	[0, 0, 0]	n/a	0	1	500	LS4	LS5	500.0	100	50	300	catFR3	0	R1236J
604.294	1.6	1671775	WORD	n/a	wordpools/wordpool.txt	LILY	Flowers	4	0	5	[0, 0, 0]	n/a	0	1	0	n/a	n/a	0.0	0	0	0	catFR3	0	R1236J
605.91	0.917	1673391	WORD_OFF	n/a	n/a	LILY	n/a	4	0	5	[0, 0, 0]	n/a	0	1	0	n/a	n/a	0.0	0	0	0	catFR3	0	R1236J
606.827	1.6	1674308	WORD	n/a	wordpools/wordpool.txt	MOSQUITO	Insects	5	0	5	[0, 0, 0]	n/a	0	1	0	n/a	n/a	0.0	0	0	0	catFR3	0	R1236J
608.443	0.967	1675924	WORD_OFF	n/a	n/a	MOSQUITO	n/a	5	0	5	[0, 0, 0]	n/a	0	1	0	n/a	n/a	0.0	0	0	0	catFR3	0	R1236J
609.41	1.6	1676891	WORD	n/a	wordpools/wordpool.txt	ANT	Insects	6	1	5	[0, 0, 0]	n/a	0	1	0	n/a	n/a	0.0	0	0	0	catFR3	0	R1236J
611.009	0.5	1678490	STIM_ON	n/a	n/a	ANT	n/a	6	1	5	[0, 0, 0]	n/a	1	1	500	LS4	LS5	500.0	100	50	300	catFR3	0	R1236J
611.028	0.471	1678509	WORD_OFF	n/a	n/a	ANT	n/a	6	0	5	[0, 0, 0]	n/a	1	1	500	LS4	LS5	500.0	100	50	300	catFR3	0	R1236J
611.499	0.495	1678980	STIM_OFF	n/a	n/a	n/a	n/a	6	0	5	[0, 0, 0]	n/a	0	1	500	LS4	LS5	500.0	100	50	300	catFR3	0	R1236J
611.994	1.6	1679475	WORD	n/a	wordpools/wordpool.txt	CARNATION	Flowers	7	0	5	[0, 0, 0]	n/a	0	1	0	n/a	n/a	0.0	0	0	0	catFR3	0	R1236J
613.611	0.833	1681092	WORD_OFF	n/a	n/a	CARNATION	n/a	7	0	5	[0, 0, 0]	n/a	0	1	0	n/a	n/a	0.0	0	0	0	catFR3	0	R1236J
614.444	1.6	1681925	WORD	n/a	wordpools/wordpool.txt	MARIGOLD	Flowers	8	1	5	[0, 0, 0]	n/a	0	1	0	n/a	n/a	0.0	0	0	0	catFR3	0	R1236J
616.052	0.5	1683533	STIM_ON	n/a	n/a	MARIGOLD	n/a	8	1	5	[0, 0, 0]	n/a	1	1	500	LS4	LS5	500.0	100	50	300	catFR3	0	R1236J
616.062	0.48	1683543	WORD_OFF	n/a	n/a	MARIGOLD	n/a	8	0	5	[0, 0, 0]	n/a	1	1	500	LS4	LS5	500.0	100	50	300	catFR3	0	R1236J
616.542	0.453	1684023	STIM_OFF	n/a	n/a	n/a	n/a	8	0	5	[0, 0, 0]	n/a	0	1	500	LS4	LS5	500.0	100	50	300	catFR3	0	R1236J
616.995	1.6	1684476	WORD	n/a	wordpools/wordpool.txt	BUS	Vehicles	9	1	5	[0, 0, 0]	n/a	0	1	0	n/a	n/a	0.0	0	0	0	catFR3	0	R1236J
618.598	0.5	1686079	STIM_ON	n/a	n/a	BUS	n/a	9	1	5	[0, 0, 0]	n/a	1	1	500	LS4	LS5	500.0	100	50	300	catFR3	0	R1236J
618.611	0.477	1686092	WORD_OFF	n/a	n/a	BUS	n/a	9	0	5	[0, 0, 0]	n/a	1	1	500	LS4	LS5	500.0	100	50	300	catFR3	0	R1236J
619.088	0.456	1686569	STIM_OFF	n/a	n/a	n/a	n/a	9	0	5	[0, 0, 0]	n/a	0	1	500	LS4	LS5	500.0	100	50	300	catFR3	0	R1236J
619.544	1.6	1687025	WORD	n/a	wordpools/wordpool.txt	CAR	Vehicles	10	1	5	[0, 0, 0]	n/a	0	1	0	n/a	n/a	0.0	0	0	0	catFR3	0	R1236J
621.153	0.5	1688634	STIM_ON	n/a	n/a	CAR	n/a	10	1	5	[0, 0, 0]	n/a	1	1	500	LS4	LS5	500.0	100	50	300	catFR3	0	R1236J
621.162	0.481	1688643	WORD_OFF	n/a	n/a	CAR	n/a	10	0	5	[0, 0, 0]	n/a	1	1	500	LS4	LS5	500.0	100	50	300	catFR3	0	R1236J
621.643	0.436	1689124	STIM_OFF	n/a	n/a	n/a	n/a	10	0	5	[0, 0, 0]	n/a	0	1	500	LS4	LS5	500.0	100	50	300	catFR3	0	R1236J
622.079	1.6	1689560	WORD	n/a	wordpools/wordpool.txt	MOTH	Insects	11	1	5	[0, 0, 0]	n/a	0	1	0	n/a	n/a	0.0	0	0	0	catFR3	0	R1236J
623.689	0.5	1691170	STIM_ON	n/a	n/a	MOTH	n/a	11	1	5	[0, 0, 0]	n/a	1	1	500	LS4	LS5	500.0	100	50	300	catFR3	0	R1236J
623.696	0.483	1691177	WORD_OFF	n/a	n/a	MOTH	n/a	11	0	5	[0, 0, 0]	n/a	1	1	500	LS4	LS5	500.0	100	50	300	catFR3	0	R1236J
624.179	0.4	1691660	STIM_OFF	n/a	n/a	n/a	n/a	11	0	5	[0, 0, 0]	n/a	0	1	500	LS4	LS5	500.0	100	50	300	catFR3	0	R1236J
624.579	1.6	1692060	WORD	n/a	wordpools/wordpool.txt	FLY	Insects	12	1	5	[0, 0, 0]	n/a	0	1	0	n/a	n/a	0.0	0	0	0	catFR3	0	R1236J
626.183	0.5	1693664	STIM_ON	n/a	n/a	n/a	n/a	11	0	5	[0, 0, 0]	n/a	1	1	500	LS4	LS5	500.0	100	50	300	catFR3	0	R1236J
626.197	0.0	1693678	ENCODING_END	n/a	n/a	n/a	n/a	-999	0	5	[0, 0, 0]	n/a	1	1	500	LS4	LS5	500.0	100	50	300	catFR3	0	R1236J
626.197	0.078	1693678	WORD_OFF	n/a	n/a	FLY	n/a	12	0	5	[0, 0, 0]	n/a	1	1	500	LS4	LS5	500.0	100	50	300	catFR3	0	R1236J
626.275	0.0	1693756	DISTRACT_START	n/a	n/a	n/a	n/a	-999	0	5	[0, 0, 0]	n/a	1	1	500	LS4	LS5	500.0	100	50	300	catFR3	0	R1236J
626.275	0.022	1693756	START	n/a	n/a	n/a	n/a	-999	0	5	[-999, -999, -999]	n/a	0	1	0	n/a	n/a	0.0	0	0	0	catFR3	0	R1236J
626.297	0.376	1693778	PROB	2.796	n/a	n/a	n/a	-999	0	5	[5, 4, 2]	11	0	1	0	n/a	n/a	0.0	0	0	0	catFR3	0	R1236J
626.673	2.457	1694154	STIM_OFF	n/a	n/a	n/a	n/a	-999	0	5	[0, 0, 0]	n/a	0	1	500	LS4	LS5	500.0	100	50	300	catFR3	0	R1236J
629.13	3.617	1696611	PROB	3.587	n/a	n/a	n/a	-999	0	5	[5, 1, 7]	13	0	1	0	n/a	n/a	0.0	0	0	0	catFR3	0	R1236J
632.747	3.783	1700228	PROB	3.746	n/a	n/a	n/a	-999	0	5	[2, 8, 9]	19	0	1	0	n/a	n/a	0.0	0	0	0	catFR3	0	R1236J
636.53	3.835	1704011	PROB	3.813	n/a	n/a	n/a	-999	0	5	[5, 9, 9]	23	0	1	0	n/a	n/a	0.0	0	0	0	catFR3	0	R1236J
640.365	3.984	1707846	PROB	3.952	n/a	n/a	n/a	-999	0	5	[6, 6, 4]	16	0	1	0	n/a	n/a	0.0	0	0	0	catFR3	0	R1236J
644.349	3.272	1711830	PROB	3.272	n/a	n/a	n/a	-999	0	5	[5, 9, 1]	15	0	1	0	n/a	n/a	0.0	0	0	0	catFR3	0	R1236J
647.621	0.011	1715102	STOP	n/a	n/a	n/a	n/a	-999	0	5	[-999, -999, -999]	n/a	0	1	0	n/a	n/a	0.0	0	0	0	catFR3	0	R1236J
647.632	0.534	1715113	DISTRACT_END	n/a	n/a	n/a	n/a	-999	0	5	[0, 0, 0]	n/a	0	1	0	n/a	n/a	0.0	0	0	0	catFR3	0	R1236J
648.166	0.5	1715647	RETRIEVAL_ORIENT	n/a	n/a	n/a	n/a	-999	0	5	[0, 0, 0]	n/a	0	1	0	n/a	n/a	0.0	0	0	0	catFR3	0	R1236J
648.683	0.819	1716164	REC_START	n/a	n/a	n/a	n/a	-999	0	5	[0, 0, 0]	n/a	0	1	0	n/a	n/a	0.0	0	0	0	catFR3	0	R1236J
649.502	0.99	1716983	REC_WORD	0.819	n/a	MOPED	Vehicles	1	1	5	[0, 0, 0]	n/a	0	1	0	n/a	n/a	0.0	0	0	0	catFR3	0	R1236J
650.492	0.884	1717973	REC_WORD	1.809	n/a	BUS	Vehicles	9	1	5	[0, 0, 0]	n/a	0	1	0	n/a	n/a	0.0	0	0	0	catFR3	0	R1236J
651.376	2.082	1718857	REC_WORD	2.693	n/a	CAR	Vehicles	10	1	5	[0, 0, 0]	n/a	0	1	0	n/a	n/a	0.0	0	0	0	catFR3	0	R1236J
653.458	1.599	1720939	REC_WORD	4.775	n/a	VIOLET	Flowers	3	1	5	[0, 0, 0]	n/a	0	1	0	n/a	n/a	0.0	0	0	0	catFR3	0	R1236J
655.057	5.412	1722538	REC_WORD	6.374	n/a	MARIGOLD	Flowers	8	1	5	[0, 0, 0]	n/a	0	1	0	n/a	n/a	0.0	0	0	0	catFR3	0	R1236J
660.469	3.03	1727950	REC_WORD	11.786	n/a	MOTH	Insects	11	1	5	[0, 0, 0]	n/a	0	1	0	n/a	n/a	0.0	0	0	0	catFR3	0	R1236J
663.499	1.549	1730980	REC_WORD	14.816	n/a	ANT	Insects	6	1	5	[0, 0, 0]	n/a	0	1	0	n/a	n/a	0.0	0	0	0	catFR3	0	R1236J
665.048	3.745	1732529	REC_WORD	16.365	n/a	ROACH	n/a	-999	0	5	[0, 0, 0]	n/a	0	1	0	n/a	n/a	0.0	0	0	0	catFR3	0	R1236J
668.793	9.901	1736274	REC_WORD	20.11	n/a	FLY	Insects	12	1	5	[0, 0, 0]	n/a	0	1	0	n/a	n/a	0.0	0	0	0	catFR3	0	R1236J
678.694	4.227	1746175	REC_END	n/a	n/a	n/a	n/a	-999	0	5	[0, 0, 0]	n/a	0	1	0	n/a	n/a	0.0	0	0	0	catFR3	0	R1236J
682.921	0.5	1750402	TRIAL	n/a	n/a	n/a	n/a	-999	0	6	[0, 0, 0]	n/a	0	1	0	n/a	n/a	0.0	0	0	0	catFR3	0	R1236J
683.421	10.0	1750902	COUNTDOWN_START	n/a	n/a	n/a	n/a	-999	0	6	[0, 0, 0]	n/a	0	1	0	n/a	n/a	0.0	0	0	0	catFR3	0	R1236J
693.849	0.007	1761330	COUNTDOWN_END	n/a	n/a	n/a	n/a	-999	0	6	[0, 0, 0]	n/a	0	1	0	n/a	n/a	0.0	0	0	0	catFR3	0	R1236J
693.856	1.6	1761337	ORIENT	n/a	n/a	n/a	n/a	-999	0	6	[0, 0, 0]	n/a	0	1	0	n/a	n/a	0.0	0	0	0	catFR3	0	R1236J
695.471	2.034	1762952	ORIENT_OFF	n/a	n/a	n/a	n/a	-999	0	6	[0, 0, 0]	n/a	0	1	0	n/a	n/a	0.0	0	0	0	catFR3	0	R1236J
697.505	1.6	1764986	WORD	n/a	wordpools/wordpool.txt	BULL	FarmAnimals	1	1	6	[0, 0, 0]	n/a	0	1	0	n/a	n/a	0.0	0	0	0	catFR3	0	R1236J
699.11	0.5	1766591	STIM_ON	n/a	n/a	BULL	n/a	1	1	6	[0, 0, 0]	n/a	1	1	500	LS4	LS5	500.0	100	50	300	catFR3	0	R1236J
699.123	0.477	1766604	WORD_OFF	n/a	n/a	BULL	n/a	1	0	6	[0, 0, 0]	n/a	1	1	500	LS4	LS5	500.0	100	50	300	catFR3	0	R1236J
699.6	0.523	1767081	STIM_OFF	n/a	n/a	n/a	n/a	1	0	6	[0, 0, 0]	n/a	0	1	500	LS4	LS5	500.0	100	50	300	catFR3	0	R1236J
700.123	1.6	1767604	WORD	n/a	wordpools/wordpool.txt	GOAT	FarmAnimals	2	1	6	[0, 0, 0]	n/a	0	1	0	n/a	n/a	0.0	0	0	0	catFR3	0	R1236J
701.726	0.5	1769207	STIM_ON	n/a	n/a	GOAT	n/a	2	1	6	[0, 0, 0]	n/a	1	1	500	LS4	LS5	500.0	100	50	300	catFR3	0	R1236J
701.74	0.476	1769221	WORD_OFF	n/a	n/a	GOAT	n/a	2	0	6	[0, 0, 0]	n/a	1	1	500	LS4	LS5	500.0	100	50	300	catFR3	0	R1236J
702.216	0.423	1769697	STIM_OFF	n/a	n/a	n/a	n/a	2	0	6	[0, 0, 0]	n/a	0	1	500	LS4	LS5	500.0	100	50	300	catFR3	0	R1236J
702.639	1.6	1770120	WORD	n/a	wordpools/wordpool.txt	FOLDER	OfficeSupplies	3	0	6	[0, 0, 0]	n/a	0	1	0	n/a	n/a	0.0	0	0	0	catFR3	0	R1236J
704.254	0.5	1771735	STIM_ON	n/a	n/a	FOLDER	n/a	3	0	6	[0, 0, 0]	n/a	1	1	500	LS4	LS5	500.0	100	50	300	catFR3	0	R1236J
704.257	0.487	1771738	WORD_OFF	n/a	n/a	FOLDER	n/a	3	0	6	[0, 0, 0]	n/a	1	1	500	LS4	LS5	500.0	100	50	300	catFR3	0	R1236J
704.744	0.346	1772225	STIM_OFF	n/a	n/a	n/a	n/a	3	0	6	[0, 0, 0]	n/a	0	1	500	LS4	LS5	500.0	100	50	300	catFR3	0	R1236J
705.09	1.6	1772571	WORD	n/a	wordpools/wordpool.txt	GLUE	OfficeSupplies	4	1	6	[0, 0, 0]	n/a	0	1	0	n/a	n/a	0.0	0	0	0	catFR3	0	R1236J
706.699	0.5	1774180	STIM_ON	n/a	n/a	GLUE	n/a	4	1	6	[0, 0, 0]	n/a	1	1	500	LS4	LS5	500.0	100	50	300	catFR3	0	R1236J
706.707	0.482	1774188	WORD_OFF	n/a	n/a	GLUE	n/a	4	0	6	[0, 0, 0]	n/a	1	1	500	LS4	LS5	500.0	100	50	300	catFR3	0	R1236J
707.189	0.35	1774670	STIM_OFF	n/a	n/a	n/a	n/a	4	0	6	[0, 0, 0]	n/a	0	1	500	LS4	LS5	500.0	100	50	300	catFR3	0	R1236J
707.539	1.6	1775020	WORD	n/a	wordpools/wordpool.txt	GRATER	KitchenTools	5	1	6	[0, 0, 0]	n/a	0	1	0	n/a	n/a	0.0	0	0	0	catFR3	0	R1236J
709.14	0.022	1776621	WORD_OFF	n/a	n/a	GRATER	n/a	5	0	6	[0, 0, 0]	n/a	0	1	0	n/a	n/a	0.0	0	0	0	catFR3	0	R1236J
709.162	0.5	1776643	STIM_ON	n/a	n/a	n/a	n/a	5	0	6	[0, 0, 0]	n/a	1	1	500	LS4	LS5	500.0	100	50	300	catFR3	0	R1236J
709.652	0.439	1777133	STIM_OFF	n/a	n/a	n/a	n/a	5	0	6	[0, 0, 0]	n/a	0	1	500	LS4	LS5	500.0	100	50	300	catFR3	0	R1236J
710.091	1.6	1777572	WORD	n/a	wordpools/wordpool.txt	SPOON	KitchenTools	6	0	6	[0, 0, 0]	n/a	0	1	0	n/a	n/a	0.0	0	0	0	catFR3	0	R1236J
711.704	0.5	1779185	STIM_ON	n/a	n/a	SPOON	n/a	6	0	6	[0, 0, 0]	n/a	1	1	500	LS4	LS5	500.0	100	50	300	catFR3	0	R1236J
711.708	0.486	1779189	WORD_OFF	n/a	n/a	SPOON	n/a	6	0	6	[0, 0, 0]	n/a	1	1	500	LS4	LS5	500.0	100	50	300	catFR3	0	R1236J
712.194	0.396	1779675	STIM_OFF	n/a	n/a	n/a	n/a	6	0	6	[0, 0, 0]	n/a	0	1	500	LS4	LS5	500.0	100	50	300	catFR3	0	R1236J
712.59	1.6	1780071	WORD	n/a	wordpools/wordpool.txt	ROOSTER	FarmAnimals	7	0	6	[0, 0, 0]	n/a	0	1	0	n/a	n/a	0.0	0	0	0	catFR3	0	R1236J
714.208	1.0	1781689	WORD_OFF	n/a	n/a	ROOSTER	n/a	7	0	6	[0, 0, 0]	n/a	0	1	0	n/a	n/a	0.0	0	0	0	catFR3	0	R1236J
715.208	1.6	1782689	WORD	n/a	wordpools/wordpool.txt	HORSE	FarmAnimals	8	0	6	[0, 0, 0]	n/a	0	1	0	n/a	n/a	0.0	0	0	0	catFR3	0	R1236J
716.825	0.001	1784306	WORD_OFF	n/a	n/a	HORSE	n/a	8	0	6	[0, 0, 0]	n/a	0	1	0	n/a	n/a	0.0	0	0	0	catFR3	0	R1236J
716.826	0.5	1784307	STIM_ON	n/a	n/a	n/a	n/a	8	0	6	[0, 0, 0]	n/a	1	1	500	LS4	LS5	500.0	100	50	300	catFR3	0	R1236J
717.316	0.409	1784797	STIM_OFF	n/a	n/a	n/a	n/a	8	0	6	[0, 0, 0]	n/a	0	1	500	LS4	LS5	500.0	100	50	300	catFR3	0	R1236J
717.725	1.6	1785206	WORD	n/a	wordpools/wordpool.txt	MARKER	OfficeSupplies	9	0	6	[0, 0, 0]	n/a	0	1	0	n/a	n/a	0.0	0	0	0	catFR3	0	R1236J
719.335	0.5	1786816	STIM_ON	n/a	n/a	MARKER	n/a	9	0	6	[0, 0, 0]	n/a	1	1	500	LS4	LS5	500.0	100	50	300	catFR3	0	R1236J
719.342	0.483	1786823	WORD_OFF	n/a	n/a	MARKER	n/a	9	0	6	[0, 0, 0]	n/a	1	1	500	LS4	LS5	500.0	100	50	300	catFR3	0	R1236J
719.825	0.284	1787306	STIM_OFF	n/a	n/a	n/a	n/a	9	0	6	[0, 0, 0]	n/a	0	1	500	LS4	LS5	500.0	100	50	300	catFR3	0	R1236J
720.109	1.6	1787590	WORD	n/a	wordpools/wordpool.txt	PENCIL	OfficeSupplies	10	1	6	[0, 0, 0]	n/a	0	1	0	n/a	n/a	0.0	0	0	0	catFR3	0	R1236J
721.719	0.5	1789200	STIM_ON	n/a	n/a	PENCIL	n/a	10	1	6	[0, 0, 0]	n/a	1	1	500	LS4	LS5	500.0	100	50	300	catFR3	0	R1236J
721.726	0.483	1789207	WORD_OFF	n/a	n/a	PENCIL	n/a	10	0	6	[0, 0, 0]	n/a	1	1	500	LS4	LS5	500.0	100	50	300	catFR3	0	R1236J
722.209	0.349	1789690	STIM_OFF	n/a	n/a	n/a	n/a	10	0	6	[0, 0, 0]	n/a	0	1	500	LS4	LS5	500.0	100	50	300	catFR3	0	R1236J
722.558	1.6	1790039	WORD	n/a	wordpools/wordpool.txt	STRAINER	KitchenTools	11	1	6	[0, 0, 0]	n/a	0	1	0	n/a	n/a	0.0	0	0	0	catFR3	0	R1236J
724.176	0.005	1791657	WORD_OFF	n/a	n/a	STRAINER	n/a	11	0	6	[0, 0, 0]	n/a	0	1	0	n/a	n/a	0.0	0	0	0	catFR3	0	R1236J
724.181	0.5	1791662	STIM_ON	n/a	n/a	n/a	n/a	11	0	6	[0, 0, 0]	n/a	1	1	500	LS4	LS5	500.0	100	50	300	catFR3	0	R1236J
724.671	0.339	1792152	STIM_OFF	n/a	n/a	n/a	n/a	11	0	6	[0, 0, 0]	n/a	0	1	500	LS4	LS5	500.0	100	50	300	catFR3	0	R1236J
725.01	1.6	1792491	WORD	n/a	wordpools/wordpool.txt	LADLE	KitchenTools	12	1	6	[0, 0, 0]	n/a	0	1	0	n/a	n/a	0.0	0	0	0	catFR3	0	R1236J
726.626	0.0	1794107	ENCODING_END	n/a	n/a	n/a	n/a	-999	0	6	[0, 0, 0]	n/a	0	1	0	n/a	n/a	0.0	0	0	0	catFR3	0	R1236J
726.626	0.078	1794107	WORD_OFF	n/a	n/a	LADLE	n/a	12	0	6	[0, 0, 0]	n/a	0	1	0	n/a	n/a	0.0	0	0	0	catFR3	0	R1236J
726.704	0.001	1794185	DISTRACT_START	n/a	n/a	n/a	n/a	-999	0	6	[0, 0, 0]	n/a	0	1	0	n/a	n/a	0.0	0	0	0	catFR3	0	R1236J
726.705	0.022	1794186	START	n/a	n/a	n/a	n/a	-999	0	6	[-999, -999, -999]	n/a	0	1	0	n/a	n/a	0.0	0	0	0	catFR3	0	R1236J
726.727	3.183	1794208	PROB	3.148	n/a	n/a	n/a	-999	0	6	[1, 9, 5]	15	0	1	0	n/a	n/a	0.0	0	0	0	catFR3	0	R1236J
729.91	2.951	1797391	PROB	2.916	n/a	n/a	n/a	-999	0	6	[8, 1, 8]	17	0	1	0	n/a	n/a	0.0	0	0	0	catFR3	0	R1236J
732.861	4.984	1800342	PROB	4.949	n/a	n/a	n/a	-999	0	6	[9, 6, 6]	21	0	1	0	n/a	n/a	0.0	0	0	0	catFR3	0	R1236J
737.845	4.5	1805326	PROB	4.469	n/a	n/a	n/a	-999	0	6	[4, 8, 7]	19	0	1	0	n/a	n/a	0.0	0	0	0	catFR3	0	R1236J
742.345	3.617	1809826	PROB	3.592	n/a	n/a	n/a	-999	0	6	[8, 2, 8]	18	0	1	0	n/a	n/a	0.0	0	0	0	catFR3	0	R1236J
745.962	3.119	1813443	PROB	3.119	n/a	n/a	n/a	-999	0	6	[3, 9, 9]	21	0	1	0	n/a	n/a	0.0	0	0	0	catFR3	0	R1236J
749.081	0.015	1816562	STOP	n/a	n/a	n/a	n/a	-999	0	6	[-999, -999, -999]	n/a	0	1	0	n/a	n/a	0.0	0	0	0	catFR3	0	R1236J
749.096	0.582	1816577	DISTRACT_END	n/a	n/a	n/a	n/a	-999	0	6	[0, 0, 0]	n/a	0	1	0	n/a	n/a	0.0	0	0	0	catFR3	0	R1236J
749.678	0.5	1817159	RETRIEVAL_ORIENT	n/a	n/a	n/a	n/a	-999	0	6	[0, 0, 0]	n/a	0	1	0	n/a	n/a	0.0	0	0	0	catFR3	0	R1236J
750.197	1.481	1817678	REC_START	n/a	n/a	n/a	n/a	-999	0	6	[0, 0, 0]	n/a	0	1	0	n/a	n/a	0.0	0	0	0	catFR3	0	R1236J
751.678	1.048	1819159	REC_WORD	1.481	n/a	GRATER	KitchenTools	5	1	6	[0, 0, 0]	n/a	0	1	0	n/a	n/a	0.0	0	0	0	catFR3	0	R1236J
752.726	2.211	1820207	REC_WORD	2.529	n/a	LADLE	KitchenTools	12	1	6	[0, 0, 0]	n/a	0	1	0	n/a	n/a	0.0	0	0	0	catFR3	0	R1236J
754.937	4.904	1822418	REC_WORD	4.74	n/a	STRAINER	KitchenTools	11	1	6	[0, 0, 0]	n/a	0	1	0	n/a	n/a	0.0	0	0	0	catFR3	0	R1236J
759.841	1.05	1827322	REC_WORD	9.644	n/a	BULL	FarmAnimals	1	1	6	[0, 0, 0]	n/a	0	1	0	n/a	n/a	0.0	0	0	0	catFR3	0	R1236J
760.891	7.095	1828372	REC_WORD	10.694	n/a	GOAT	FarmAnimals	2	1	6	[0, 0, 0]	n/a	0	1	0	n/a	n/a	0.0	0	0	0	catFR3	0	R1236J
767.986	2.257	1835467	REC_WORD	17.789	n/a	COW	n/a	-999	0	6	[0, 0, 0]	n/a	0	1	0	n/a	n/a	0.0	0	0	0	catFR3	0	R1236J
770.243	4.047	1837724	REC_WORD	20.046	n/a	HEN	n/a	-999	0	6	[0, 0, 0]	n/a	0	1	0	n/a	n/a	0.0	0	0	0	catFR3	0	R1236J
774.29	1.948	1841771	REC_WORD	24.093	n/a	PENCIL	OfficeSupplies	10	1	6	[0, 0, 0]	n/a	0	1	0	n/a	n/a	0.0	0	0	0	catFR3	0	R1236J
776.238	1.99	1843719	REC_WORD	26.041	n/a	GLUE	OfficeSupplies	4	1	6	[0, 0, 0]	n/a	0	1	0	n/a	n/a	0.0	0	0	0	catFR3	0	R1236J
778.228	1.979	1845709	REC_WORD	28.031	n/a	PEN	n/a	-999	0	6	[0, 0, 0]	n/a	0	1	0	n/a	n/a	0.0	0	0	0	catFR3	0	R1236J
780.207	4.843	1847688	REC_END	n/a	n/a	n/a	n/a	-999	0	6	[0, 0, 0]	n/a	0	1	0	n/a	n/a	0.0	0	0	0	catFR3	0	R1236J
785.05	0.5	1852531	TRIAL	n/a	n/a	n/a	n/a	-999	0	7	[0, 0, 0]	n/a	0	1	0	n/a	n/a	0.0	0	0	0	catFR3	0	R1236J
785.55	10.0	1853031	COUNTDOWN_START	n/a	n/a	n/a	n/a	-999	0	7	[0, 0, 0]	n/a	0	1	0	n/a	n/a	0.0	0	0	0	catFR3	0	R1236J
795.978	0.007	1863459	COUNTDOWN_END	n/a	n/a	n/a	n/a	-999	0	7	[0, 0, 0]	n/a	0	1	0	n/a	n/a	0.0	0	0	0	catFR3	0	R1236J
795.985	1.6	1863466	ORIENT	n/a	n/a	n/a	n/a	-999	0	7	[0, 0, 0]	n/a	0	1	0	n/a	n/a	0.0	0	0	0	catFR3	0	R1236J
797.601	2.235	1865082	ORIENT_OFF	n/a	n/a	n/a	n/a	-999	0	7	[0, 0, 0]	n/a	0	1	0	n/a	n/a	0.0	0	0	0	catFR3	0	R1236J
799.836	1.6	1867317	WORD	n/a	wordpools/wordpool.txt	TABLE	Furniture	1	1	7	[0, 0, 0]	n/a	0	1	0	n/a	n/a	0.0	0	0	0	catFR3	0	R1236J
801.452	0.003	1868933	WORD_OFF	n/a	n/a	TABLE	n/a	1	0	7	[0, 0, 0]	n/a	0	1	0	n/a	n/a	0.0	0	0	0	catFR3	0	R1236J
801.455	0.5	1868936	STIM_ON	n/a	n/a	n/a	n/a	1	0	7	[0, 0, 0]	n/a	1	1	500	LS4	LS5	500.0	100	50	300	catFR3	0	R1236J
801.945	0.457	1869426	STIM_OFF	n/a	n/a	n/a	n/a	1	0	7	[0, 0, 0]	n/a	0	1	500	LS4	LS5	500.0	100	50	300	catFR3	0	R1236J
802.402	1.6	1869883	WORD	n/a	wordpools/wordpool.txt	CABINET	Furniture	2	1	7	[0, 0, 0]	n/a	0	1	0	n/a	n/a	0.0	0	0	0	catFR3	0	R1236J
804.02	0.883	1871501	WORD_OFF	n/a	n/a	CABINET	n/a	2	0	7	[0, 0, 0]	n/a	0	1	0	n/a	n/a	0.0	0	0	0	catFR3	0	R1236J
804.903	1.6	1872384	WORD	n/a	wordpools/wordpool.txt	CARDINAL	Birds	3	0	7	[0, 0, 0]	n/a	0	1	0	n/a	n/a	0.0	0	0	0	catFR3	0	R1236J
806.519	1.016	1874000	WORD_OFF	n/a	n/a	CARDINAL	n/a	3	0	7	[0, 0, 0]	n/a	0	1	0	n/a	n/a	0.0	0	0	0	catFR3	0	R1236J
807.535	1.6	1875016	WORD	n/a	wordpools/wordpool.txt	PIGEON	Birds	4	1	7	[0, 0, 0]	n/a	0	1	0	n/a	n/a	0.0	0	0	0	catFR3	0	R1236J
809.137	0.933	1876618	WORD_OFF	n/a	n/a	PIGEON	n/a	4	0	7	[0, 0, 0]	n/a	0	1	0	n/a	n/a	0.0	0	0	0	catFR3	0	R1236J
810.07	1.6	1877551	WORD	n/a	wordpools/wordpool.txt	ORGAN	Instruments	5	0	7	[0, 0, 0]	n/a	0	1	0	n/a	n/a	0.0	0	0	0	catFR3	0	R1236J
811.686	0.012	1879167	WORD_OFF	n/a	n/a	ORGAN	n/a	5	0	7	[0, 0, 0]	n/a	0	1	0	n/a	n/a	0.0	0	0	0	catFR3	0	R1236J
811.698	0.5	1879179	STIM_ON	n/a	n/a	n/a	n/a	5	0	7	[0, 0, 0]	n/a	1	1	500	LS4	LS5	500.0	100	50	300	catFR3	0	R1236J
812.188	0.498	1879669	STIM_OFF	n/a	n/a	n/a	n/a	5	0	7	[0, 0, 0]	n/a	0	1	500	LS4	LS5	500.0	100	50	300	catFR3	0	R1236J
812.686	1.6	1880167	WORD	n/a	wordpools/wordpool.txt	TRUMPET	Instruments	6	0	7	[0, 0, 0]	n/a	0	1	0	n/a	n/a	0.0	0	0	0	catFR3	0	R1236J
814.304	0.016	1881785	WORD_OFF	n/a	n/a	TRUMPET	n/a	6	0	7	[0, 0, 0]	n/a	0	1	0	n/a	n/a	0.0	0	0	0	catFR3	0	R1236J
814.32	0.5	1881801	STIM_ON	n/a	n/a	n/a	n/a	6	0	7	[0, 0, 0]	n/a	1	1	500	LS4	LS5	500.0	100	50	300	catFR3	0	R1236J
814.81	0.361	1882291	STIM_OFF	n/a	n/a	n/a	n/a	6	0	7	[0, 0, 0]	n/a	0	1	500	LS4	LS5	500.0	100	50	300	catFR3	0	R1236J
815.171	1.6	1882652	WORD	n/a	wordpools/wordpool.txt	SOFA	Furniture	7	0	7	[0, 0, 0]	n/a	0	1	0	n/a	n/a	0.0	0	0	0	catFR3	0	R1236J
816.788	0.002	1884269	WORD_OFF	n/a	n/a	SOFA	n/a	7	0	7	[0, 0, 0]	n/a	0	1	0	n/a	n/a	0.0	0	0	0	catFR3	0	R1236J
816.79	0.5	1884271	STIM_ON	n/a	n/a	n/a	n/a	7	0	7	[0, 0, 0]	n/a	1	1	500	LS4	LS5	500.0	100	50	300	catFR3	0	R1236J
817.28	0.508	1884761	STIM_OFF	n/a	n/a	n/a	n/a	7	0	7	[0, 0, 0]	n/a	0	1	500	LS4	LS5	500.0	100	50	300	catFR3	0	R1236J
817.788	1.6	1885269	WORD	n/a	wordpools/wordpool.txt	SHELF	Furniture	8	1	7	[0, 0, 0]	n/a	0	1	0	n/a	n/a	0.0	0	0	0	catFR3	0	R1236J
819.404	0.004	1886885	WORD_OFF	n/a	n/a	SHELF	n/a	8	0	7	[0, 0, 0]	n/a	0	1	0	n/a	n/a	0.0	0	0	0	catFR3	0	R1236J
819.408	0.5	1886889	STIM_ON	n/a	n/a	n/a	n/a	8	0	7	[0, 0, 0]	n/a	1	1	500	LS4	LS5	500.0	100	50	300	catFR3	0	R1236J
819.898	0.324	1887379	STIM_OFF	n/a	n/a	n/a	n/a	8	0	7	[0, 0, 0]	n/a	0	1	500	LS4	LS5	500.0	100	50	300	catFR3	0	R1236J
820.222	1.6	1887703	WORD	n/a	wordpools/wordpool.txt	HAWK	Birds	9	0	7	[0, 0, 0]	n/a	0	1	0	n/a	n/a	0.0	0	0	0	catFR3	0	R1236J
821.839	0.85	1889320	WORD_OFF	n/a	n/a	HAWK	n/a	9	0	7	[0, 0, 0]	n/a	0	1	0	n/a	n/a	0.0	0	0	0	catFR3	0	R1236J
822.689	1.6	1890170	WORD	n/a	wordpools/wordpool.txt	CROW	Birds	10	1	7	[0, 0, 0]	n/a	0	1	0	n/a	n/a	0.0	0	0	0	catFR3	0	R1236J
824.306	0.013	1891787	WORD_OFF	n/a	n/a	CROW	n/a	10	0	7	[0, 0, 0]	n/a	0	1	0	n/a	n/a	0.0	0	0	0	catFR3	0	R1236J
824.319	0.5	1891800	STIM_ON	n/a	n/a	n/a	n/a	10	0	7	[0, 0, 0]	n/a	1	1	500	LS4	LS5	500.0	100	50	300	catFR3	0	R1236J
824.809	0.263	1892290	STIM_OFF	n/a	n/a	n/a	n/a	10	0	7	[0, 0, 0]	n/a	0	1	500	LS4	LS5	500.0	100	50	300	catFR3	0	R1236J
825.072	1.6	1892553	WORD	n/a	wordpools/wordpool.txt	CELLO	Instruments	11	0	7	[0, 0, 0]	n/a	0	1	0	n/a	n/a	0.0	0	0	0	catFR3	0	R1236J
826.689	0.022	1894170	WORD_OFF	n/a	n/a	CELLO	n/a	11	0	7	[0, 0, 0]	n/a	0	1	0	n/a	n/a	0.0	0	0	0	catFR3	0	R1236J
826.711	0.5	1894192	STIM_ON	n/a	n/a	n/a	n/a	11	0	7	[0, 0, 0]	n/a	1	1	500	LS4	LS5	500.0	100	50	300	catFR3	0	R1236J
827.201	0.287	1894682	STIM_OFF	n/a	n/a	n/a	n/a	11	0	7	[0, 0, 0]	n/a	0	1	500	LS4	LS5	500.0	100	50	300	catFR3	0	R1236J
827.488	1.6	1894969	WORD	n/a	wordpools/wordpool.txt	BASS	Instruments	12	0	7	[0, 0, 0]	n/a	0	1	0	n/a	n/a	0.0	0	0	0	catFR3	0	R1236J
829.089	0.0	1896570	ENCODING_END	n/a	n/a	n/a	n/a	-999	0	7	[0, 0, 0]	n/a	0	1	0	n/a	n/a	0.0	0	0	0	catFR3	0	R1236J
829.089	0.027	1896570	WORD_OFF	n/a	n/a	BASS	n/a	12	0	7	[0, 0, 0]	n/a	0	1	0	n/a	n/a	0.0	0	0	0	catFR3	0	R1236J
829.116	0.5	1896597	STIM_ON	n/a	n/a	n/a	n/a	12	0	7	[0, 0, 0]	n/a	1	1	500	LS4	LS5	500.0	100	50	300	catFR3	0	R1236J
829.168	0.0	1896649	DISTRACT_START	n/a	n/a	n/a	n/a	-999	0	7	[0, 0, 0]	n/a	1	1	500	LS4	LS5	500.0	100	50	300	catFR3	0	R1236J
829.168	0.021	1896649	START	n/a	n/a	n/a	n/a	-999	0	7	[-999, -999, -999]	n/a	0	1	0	n/a	n/a	0.0	0	0	0	catFR3	0	R1236J
829.189	0.417	1896670	PROB	3.456	n/a	n/a	n/a	-999	0	7	[1, 1, 3]	5	0	1	0	n/a	n/a	0.0	0	0	0	catFR3	0	R1236J
829.606	3.066	1897087	STIM_OFF	n/a	n/a	n/a	n/a	-999	0	7	[0, 0, 0]	n/a	0	1	500	LS4	LS5	500.0	100	50	300	catFR3	0	R1236J
832.672	3.135	1900153	PROB	3.102	n/a	n/a	n/a	-999	0	7	[1, 4, 6]	11	0	1	0	n/a	n/a	0.0	0	0	0	catFR3	0	R1236J
835.807	3.599	1903288	PROB	3.566	n/a	n/a	n/a	-999	0	7	[6, 7, 2]	15	0	1	0	n/a	n/a	0.0	0	0	0	catFR3	0	R1236J
839.406	2.618	1906887	PROB	2.584	n/a	n/a	n/a	-999	0	7	[1, 2, 1]	4	0	1	0	n/a	n/a	0.0	0	0	0	catFR3	0	R1236J
842.024	3.4	1909505	PROB	3.364	n/a	n/a	n/a	-999	0	7	[1, 6, 5]	12	0	1	0	n/a	n/a	0.0	0	0	0	catFR3	0	R1236J
845.424	2.834	1912905	PROB	2.806	n/a	n/a	n/a	-999	0	7	[1, 1, 2]	4	0	1	0	n/a	n/a	0.0	0	0	0	catFR3	0	R1236J
848.258	3.036	1915739	PROB	3.036	n/a	n/a	n/a	-999	0	7	[6, 2, 4]	12	0	1	0	n/a	n/a	0.0	0	0	0	catFR3	0	R1236J
851.294	0.015	1918775	STOP	n/a	n/a	n/a	n/a	-999	0	7	[-999, -999, -999]	n/a	0	1	0	n/a	n/a	0.0	0	0	0	catFR3	0	R1236J
851.309	0.65	1918790	DISTRACT_END	n/a	n/a	n/a	n/a	-999	0	7	[0, 0, 0]	n/a	0	1	0	n/a	n/a	0.0	0	0	0	catFR3	0	R1236J
851.959	0.5	1919440	RETRIEVAL_ORIENT	n/a	n/a	n/a	n/a	-999	0	7	[0, 0, 0]	n/a	0	1	0	n/a	n/a	0.0	0	0	0	catFR3	0	R1236J
852.476	0.919	1919957	REC_START	n/a	n/a	n/a	n/a	-999	0	7	[0, 0, 0]	n/a	0	1	0	n/a	n/a	0.0	0	0	0	catFR3	0	R1236J
853.395	0.894	1920876	REC_WORD	0.919	n/a	PIGEON	Birds	4	1	7	[0, 0, 0]	n/a	0	1	0	n/a	n/a	0.0	0	0	0	catFR3	0	R1236J
854.289	3.171	1921770	REC_WORD	1.813	n/a	CROW	Birds	10	1	7	[0, 0, 0]	n/a	0	1	0	n/a	n/a	0.0	0	0	0	catFR3	0	R1236J
857.46	0.978	1924941	REC_WORD	4.984	n/a	TABLE	Furniture	1	1	7	[0, 0, 0]	n/a	0	1	0	n/a	n/a	0.0	0	0	0	catFR3	0	R1236J
858.438	0.979	1925919	REC_WORD	5.962	n/a	CABINET	Furniture	2	1	7	[0, 0, 0]	n/a	0	1	0	n/a	n/a	0.0	0	0	0	catFR3	0	R1236J
859.417	18.472	1926898	REC_WORD	6.941	n/a	SHELF	Furniture	8	1	7	[0, 0, 0]	n/a	0	1	0	n/a	n/a	0.0	0	0	0	catFR3	0	R1236J
877.889	4.597	1945370	REC_WORD_VV	25.413	n/a	<>	n/a	-999	0	7	[0, 0, 0]	n/a	0	1	0	n/a	n/a	0.0	0	0	0	catFR3	0	R1236J
882.486	4.11	1949967	REC_END	n/a	n/a	n/a	n/a	-999	0	7	[0, 0, 0]	n/a	0	1	0	n/a	n/a	0.0	0	0	0	catFR3	0	R1236J
886.596	0.5	1954077	TRIAL	n/a	n/a	n/a	n/a	-999	0	8	[0, 0, 0]	n/a	0	0	0	n/a	n/a	0.0	0	0	0	catFR3	0	R1236J
887.096	10.0	1954577	COUNTDOWN_START	n/a	n/a	n/a	n/a	-999	0	8	[0, 0, 0]	n/a	0	0	0	n/a	n/a	0.0	0	0	0	catFR3	0	R1236J
897.524	0.006	1965005	COUNTDOWN_END	n/a	n/a	n/a	n/a	-999	0	8	[0, 0, 0]	n/a	0	0	0	n/a	n/a	0.0	0	0	0	catFR3	0	R1236J
897.53	1.6	1965011	ORIENT	n/a	n/a	n/a	n/a	-999	0	8	[0, 0, 0]	n/a	0	0	0	n/a	n/a	0.0	0	0	0	catFR3	0	R1236J
899.131	2.168	1966612	ORIENT_OFF	n/a	n/a	n/a	n/a	-999	0	8	[0, 0, 0]	n/a	0	0	0	n/a	n/a	0.0	0	0	0	catFR3	0	R1236J
901.299	1.6	1968780	WORD	n/a	wordpools/wordpool.txt	STAPLER	OfficeSupplies	1	1	8	[0, 0, 0]	n/a	0	0	0	n/a	n/a	0.0	0	0	0	catFR3	0	R1236J
902.916	1.0	1970397	WORD_OFF	n/a	n/a	STAPLER	n/a	1	0	8	[0, 0, 0]	n/a	0	0	0	n/a	n/a	0.0	0	0	0	catFR3	0	R1236J
903.916	1.6	1971397	WORD	n/a	wordpools/wordpool.txt	NOTEBOOK	OfficeSupplies	2	0	8	[0, 0, 0]	n/a	0	0	0	n/a	n/a	0.0	0	0	0	catFR3	0	R1236J
905.531	0.818	1973012	WORD_OFF	n/a	n/a	NOTEBOOK	n/a	2	0	8	[0, 0, 0]	n/a	0	0	0	n/a	n/a	0.0	0	0	0	catFR3	0	R1236J
906.349	1.6	1973830	WORD	n/a	wordpools/wordpool.txt	SHRIMP	OceanAnimals	3	0	8	[0, 0, 0]	n/a	0	0	0	n/a	n/a	0.0	0	0	0	catFR3	0	R1236J
907.966	0.817	1975447	WORD_OFF	n/a	n/a	SHRIMP	n/a	3	0	8	[0, 0, 0]	n/a	0	0	0	n/a	n/a	0.0	0	0	0	catFR3	0	R1236J
908.783	1.6	1976264	WORD	n/a	wordpools/wordpool.txt	WHALE	OceanAnimals	4	0	8	[0, 0, 0]	n/a	0	0	0	n/a	n/a	0.0	0	0	0	catFR3	0	R1236J
910.399	0.834	1977880	WORD_OFF	n/a	n/a	WHALE	n/a	4	0	8	[0, 0, 0]	n/a	0	0	0	n/a	n/a	0.0	0	0	0	catFR3	0	R1236J
911.233	1.6	1978714	WORD	n/a	wordpools/wordpool.txt	MOTORCYCLE	Vehicles	5	1	8	[0, 0, 0]	n/a	0	0	0	n/a	n/a	0.0	0	0	0	catFR3	0	R1236J
912.85	1.0	1980331	WORD_OFF	n/a	n/a	MOTORCYCLE	n/a	5	0	8	[0, 0, 0]	n/a	0	0	0	n/a	n/a	0.0	0	0	0	catFR3	0	R1236J
913.85	1.6	1981331	WORD	n/a	wordpools/wordpool.txt	SCOOTER	Vehicles	6	0	8	[0, 0, 0]	n/a	0	0	0	n/a	n/a	0.0	0	0	0	catFR3	0	R1236J
915.466	0.817	1982947	WORD_OFF	n/a	n/a	SCOOTER	n/a	6	0	8	[0, 0, 0]	n/a	0	0	0	n/a	n/a	0.0	0	0	0	catFR3	0	R1236J
916.283	1.6	1983764	WORD	n/a	wordpools/wordpool.txt	OCTOPUS	OceanAnimals	7	1	8	[0, 0, 0]	n/a	0	0	0	n/a	n/a	0.0	0	0	0	catFR3	0	R1236J
917.901	0.8	1985382	WORD_OFF	n/a	n/a	OCTOPUS	n/a	7	0	8	[0, 0, 0]	n/a	0	0	0	n/a	n/a	0.0	0	0	0	catFR3	0	R1236J
918.701	1.6	1986182	WORD	n/a	wordpools/wordpool.txt	JELLYFISH	OceanAnimals	8	1	8	[0, 0, 0]	n/a	0	0	0	n/a	n/a	0.0	0	0	0	catFR3	0	R1236J
920.318	0.917	1987799	WORD_OFF	n/a	n/a	JELLYFISH	n/a	8	0	8	[0, 0, 0]	n/a	0	0	0	n/a	n/a	0.0	0	0	0	catFR3	0	R1236J
921.235	1.6	1988716	WORD	n/a	wordpools/wordpool.txt	ERASER	OfficeSupplies	9	1	8	[0, 0, 0]	n/a	0	0	0	n/a	n/a	0.0	0	0	0	catFR3	0	R1236J
922.851	0.867	1990332	WORD_OFF	n/a	n/a	ERASER	n/a	9	0	8	[0, 0, 0]	n/a	0	0	0	n/a	n/a	0.0	0	0	0	catFR3	0	R1236J
923.718	1.6	1991199	WORD	n/a	wordpools/wordpool.txt	PEN	OfficeSupplies	10	1	8	[0, 0, 0]	n/a	0	0	0	n/a	n/a	0.0	0	0	0	catFR3	0	R1236J
925.335	0.917	1992816	WORD_OFF	n/a	n/a	PEN	n/a	10	0	8	[0, 0, 0]	n/a	0	0	0	n/a	n/a	0.0	0	0	0	catFR3	0	R1236J
926.252	1.6	1993733	WORD	n/a	wordpools/wordpool.txt	VAN	Vehicles	11	0	8	[0, 0, 0]	n/a	0	0	0	n/a	n/a	0.0	0	0	0	catFR3	0	R1236J
927.869	0.883	1995350	WORD_OFF	n/a	n/a	VAN	n/a	11	0	8	[0, 0, 0]	n/a	0	0	0	n/a	n/a	0.0	0	0	0	catFR3	0	R1236J
928.752	1.6	1996233	WORD	n/a	wordpools/wordpool.txt	PLANE	Vehicles	12	1	8	[0, 0, 0]	n/a	0	0	0	n/a	n/a	0.0	0	0	0	catFR3	0	R1236J
930.369	0.0	1997850	ENCODING_END	n/a	n/a	n/a	n/a	-999	0	8	[0, 0, 0]	n/a	0	0	0	n/a	n/a	0.0	0	0	0	catFR3	0	R1236J
930.369	0.056	1997850	WORD_OFF	n/a	n/a	PLANE	n/a	12	0	8	[0, 0, 0]	n/a	0	0	0	n/a	n/a	0.0	0	0	0	catFR3	0	R1236J
930.425	0.0	1997906	DISTRACT_START	n/a	n/a	n/a	n/a	-999	0	8	[0, 0, 0]	n/a	0	0	0	n/a	n/a	0.0	0	0	0	catFR3	0	R1236J
930.425	0.01	1997906	START	n/a	n/a	n/a	n/a	-999	0	8	[-999, -999, -999]	n/a	0	0	0	n/a	n/a	0.0	0	0	0	catFR3	0	R1236J
930.435	3.318	1997916	PROB	3.287	n/a	n/a	n/a	-999	0	8	[7, 9, 3]	19	0	0	0	n/a	n/a	0.0	0	0	0	catFR3	0	R1236J
933.753	3.033	2001234	PROB	3.009	n/a	n/a	n/a	-999	0	8	[1, 4, 8]	13	0	0	0	n/a	n/a	0.0	0	0	0	catFR3	0	R1236J
936.786	3.584	2004267	PROB	3.551	n/a	n/a	n/a	-999	0	8	[3, 4, 5]	12	0	0	0	n/a	n/a	0.0	0	0	0	catFR3	0	R1236J
940.37	3.3	2007851	PROB	3.277	n/a	n/a	n/a	-999	0	8	[4, 8, 4]	16	0	0	0	n/a	n/a	0.0	0	0	0	catFR3	0	R1236J
943.67	4.118	2011151	PROB	4.082	n/a	n/a	n/a	-999	0	8	[5, 1, 6]	12	0	0	0	n/a	n/a	0.0	0	0	0	catFR3	0	R1236J
947.788	4.436	2015269	PROB	4.436	n/a	n/a	n/a	-999	0	8	[6, 8, 4]	18	0	0	0	n/a	n/a	0.0	0	0	0	catFR3	0	R1236J
952.224	0.015	2019705	STOP	n/a	n/a	n/a	n/a	-999	0	8	[-999, -999, -999]	n/a	0	0	0	n/a	n/a	0.0	0	0	0	catFR3	0	R1236J
952.239	0.633	2019720	DISTRACT_END	n/a	n/a	n/a	n/a	-999	0	8	[0, 0, 0]	n/a	0	0	0	n/a	n/a	0.0	0	0	0	catFR3	0	R1236J
952.872	0.5	2020353	RETRIEVAL_ORIENT	n/a	n/a	n/a	n/a	-999	0	8	[0, 0, 0]	n/a	0	0	0	n/a	n/a	0.0	0	0	0	catFR3	0	R1236J
953.389	0.659	2020870	REC_START	n/a	n/a	n/a	n/a	-999	0	8	[0, 0, 0]	n/a	0	0	0	n/a	n/a	0.0	0	0	0	catFR3	0	R1236J
954.048	1.77	2021529	REC_WORD	0.659	n/a	MOPED	n/a	-999	0	8	[0, 0, 0]	n/a	0	0	0	n/a	n/a	0.0	0	0	0	catFR3	0	R1236J
955.818	1.124	2023299	REC_WORD	2.429	n/a	MOTORCYCLE	Vehicles	5	1	8	[0, 0, 0]	n/a	0	0	0	n/a	n/a	0.0	0	0	0	catFR3	0	R1236J
956.942	1.662	2024423	REC_WORD	3.553	n/a	PLANE	Vehicles	12	1	8	[0, 0, 0]	n/a	0	0	0	n/a	n/a	0.0	0	0	0	catFR3	0	R1236J
958.604	2.656	2026085	REC_WORD	5.215	n/a	CAR	n/a	-999	0	8	[0, 0, 0]	n/a	0	0	0	n/a	n/a	0.0	0	0	0	catFR3	0	R1236J
961.26	1.616	2028741	REC_WORD	7.871	n/a	STAPLER	OfficeSupplies	1	1	8	[0, 0, 0]	n/a	0	0	0	n/a	n/a	0.0	0	0	0	catFR3	0	R1236J
962.876	1.16	2030357	REC_WORD	9.487	n/a	PEN	OfficeSupplies	10	1	8	[0, 0, 0]	n/a	0	0	0	n/a	n/a	0.0	0	0	0	catFR3	0	R1236J
964.036	3.825	2031517	REC_WORD	10.647	n/a	ERASER	OfficeSupplies	9	1	8	[0, 0, 0]	n/a	0	0	0	n/a	n/a	0.0	0	0	0	catFR3	0	R1236J
967.861	2.213	2035342	REC_WORD	14.472	n/a	GLUE	n/a	-999	0	8	[0, 0, 0]	n/a	0	0	0	n/a	n/a	0.0	0	0	0	catFR3	0	R1236J
970.074	1.146	2037555	REC_WORD	16.685	n/a	OCTOPUS	OceanAnimals	7	1	8	[0, 0, 0]	n/a	0	0	0	n/a	n/a	0.0	0	0	0	catFR3	0	R1236J
971.22	3.133	2038701	REC_WORD	17.831	n/a	JELLYFISH	OceanAnimals	8	1	8	[0, 0, 0]	n/a	0	0	0	n/a	n/a	0.0	0	0	0	catFR3	0	R1236J
974.353	9.047	2041834	REC_WORD	20.964	n/a	SQUID	n/a	-999	0	8	[0, 0, 0]	n/a	0	0	0	n/a	n/a	0.0	0	0	0	catFR3	0	R1236J
983.4	4.293	2050881	REC_END	n/a	n/a	n/a	n/a	-999	0	8	[0, 0, 0]	n/a	0	0	0	n/a	n/a	0.0	0	0	0	catFR3	0	R1236J
987.693	0.5	2055174	TRIAL	n/a	n/a	n/a	n/a	-999	0	9	[0, 0, 0]	n/a	0	0	0	n/a	n/a	0.0	0	0	0	catFR3	0	R1236J
988.193	10.0	2055674	COUNTDOWN_START	n/a	n/a	n/a	n/a	-999	0	9	[0, 0, 0]	n/a	0	0	0	n/a	n/a	0.0	0	0	0	catFR3	0	R1236J
998.621	0.006	2066102	COUNTDOWN_END	n/a	n/a	n/a	n/a	-999	0	9	[0, 0, 0]	n/a	0	0	0	n/a	n/a	0.0	0	0	0	catFR3	0	R1236J
998.627	1.6	2066108	ORIENT	n/a	n/a	n/a	n/a	-999	0	9	[0, 0, 0]	n/a	0	0	0	n/a	n/a	0.0	0	0	0	catFR3	0	R1236J
1000.244	1.951	2067725	ORIENT_OFF	n/a	n/a	n/a	n/a	-999	0	9	[0, 0, 0]	n/a	0	0	0	n/a	n/a	0.0	0	0	0	catFR3	0	R1236J
1002.195	1.6	2069676	WORD	n/a	wordpools/wordpool.txt	ROOF	Building	1	1	9	[0, 0, 0]	n/a	0	0	0	n/a	n/a	0.0	0	0	0	catFR3	0	R1236J
1003.812	0.95	2071293	WORD_OFF	n/a	n/a	ROOF	n/a	1	0	9	[0, 0, 0]	n/a	0	0	0	n/a	n/a	0.0	0	0	0	catFR3	0	R1236J
1004.762	1.6	2072243	WORD	n/a	wordpools/wordpool.txt	ROOM	Building	2	1	9	[0, 0, 0]	n/a	0	0	0	n/a	n/a	0.0	0	0	0	catFR3	0	R1236J
1006.379	0.766	2073860	WORD_OFF	n/a	n/a	ROOM	n/a	2	0	9	[0, 0, 0]	n/a	0	0	0	n/a	n/a	0.0	0	0	0	catFR3	0	R1236J
1007.145	1.6	2074626	WORD	n/a	wordpools/wordpool.txt	MICROWAVE	Electronics	3	1	9	[0, 0, 0]	n/a	0	0	0	n/a	n/a	0.0	0	0	0	catFR3	0	R1236J
1008.762	0.799	2076243	WORD_OFF	n/a	n/a	MICROWAVE	n/a	3	0	9	[0, 0, 0]	n/a	0	0	0	n/a	n/a	0.0	0	0	0	catFR3	0	R1236J
1009.561	1.6	2077042	WORD	n/a	wordpools/wordpool.txt	TELEVISION	Electronics	4	1	9	[0, 0, 0]	n/a	0	0	0	n/a	n/a	0.0	0	0	0	catFR3	0	R1236J
1011.179	0.917	2078660	WORD_OFF	n/a	n/a	TELEVISION	n/a	4	0	9	[0, 0, 0]	n/a	0	0	0	n/a	n/a	0.0	0	0	0	catFR3	0	R1236J
1012.096	1.6	2079577	WORD	n/a	wordpools/wordpool.txt	DAISY	Flowers	5	1	9	[0, 0, 0]	n/a	0	0	0	n/a	n/a	0.0	0	0	0	catFR3	0	R1236J
1013.713	0.783	2081194	WORD_OFF	n/a	n/a	DAISY	n/a	5	0	9	[0, 0, 0]	n/a	0	0	0	n/a	n/a	0.0	0	0	0	catFR3	0	R1236J
1014.496	1.6	2081977	WORD	n/a	wordpools/wordpool.txt	SUNFLOWER	Flowers	6	1	9	[0, 0, 0]	n/a	0	0	0	n/a	n/a	0.0	0	0	0	catFR3	0	R1236J
1016.113	0.784	2083594	WORD_OFF	n/a	n/a	SUNFLOWER	n/a	6	0	9	[0, 0, 0]	n/a	0	0	0	n/a	n/a	0.0	0	0	0	catFR3	0	R1236J
1016.897	1.6	2084378	WORD	n/a	wordpools/wordpool.txt	SCANNER	Electronics	7	1	9	[0, 0, 0]	n/a	0	0	0	n/a	n/a	0.0	0	0	0	catFR3	0	R1236J
1018.512	0.768	2085993	WORD_OFF	n/a	n/a	SCANNER	n/a	7	0	9	[0, 0, 0]	n/a	0	0	0	n/a	n/a	0.0	0	0	0	catFR3	0	R1236J
1019.28	1.6	2086761	WORD	n/a	wordpools/wordpool.txt	COMPUTER	Electronics	8	0	9	[0, 0, 0]	n/a	0	0	0	n/a	n/a	0.0	0	0	0	catFR3	0	R1236J
1020.897	0.95	2088378	WORD_OFF	n/a	n/a	COMPUTER	n/a	8	0	9	[0, 0, 0]	n/a	0	0	0	n/a	n/a	0.0	0	0	0	catFR3	0	R1236J
1021.847	1.6	2089328	WORD	n/a	wordpools/wordpool.txt	CEILING	Building	9	1	9	[0, 0, 0]	n/a	0	0	0	n/a	n/a	0.0	0	0	0	catFR3	0	R1236J
1023.463	0.868	2090944	WORD_OFF	n/a	n/a	CEILING	n/a	9	0	9	[0, 0, 0]	n/a	0	0	0	n/a	n/a	0.0	0	0	0	catFR3	0	R1236J
1024.331	1.6	2091812	WORD	n/a	wordpools/wordpool.txt	ATTIC	Building	10	1	9	[0, 0, 0]	n/a	0	0	0	n/a	n/a	0.0	0	0	0	catFR3	0	R1236J
1025.948	0.767	2093429	WORD_OFF	n/a	n/a	ATTIC	n/a	10	0	9	[0, 0, 0]	n/a	0	0	0	n/a	n/a	0.0	0	0	0	catFR3	0	R1236J
1026.715	1.6	2094196	WORD	n/a	wordpools/wordpool.txt	LILAC	Flowers	11	1	9	[0, 0, 0]	n/a	0	0	0	n/a	n/a	0.0	0	0	0	catFR3	0	R1236J
1028.331	0.984	2095812	WORD_OFF	n/a	n/a	LILAC	n/a	11	0	9	[0, 0, 0]	n/a	0	0	0	n/a	n/a	0.0	0	0	0	catFR3	0	R1236J
1029.315	1.6	2096796	WORD	n/a	wordpools/wordpool.txt	PETUNIA	Flowers	12	1	9	[0, 0, 0]	n/a	0	0	0	n/a	n/a	0.0	0	0	0	catFR3	0	R1236J
1030.932	0.0	2098413	ENCODING_END	n/a	n/a	n/a	n/a	-999	0	9	[0, 0, 0]	n/a	0	0	0	n/a	n/a	0.0	0	0	0	catFR3	0	R1236J
1030.932	0.056	2098413	WORD_OFF	n/a	n/a	PETUNIA	n/a	12	0	9	[0, 0, 0]	n/a	0	0	0	n/a	n/a	0.0	0	0	0	catFR3	0	R1236J
1030.988	0.0	2098469	DISTRACT_START	n/a	n/a	n/a	n/a	-999	0	9	[0, 0, 0]	n/a	0	0	0	n/a	n/a	0.0	0	0	0	catFR3	0	R1236J
1030.988	0.011	2098469	START	n/a	n/a	n/a	n/a	-999	0	9	[-999, -999, -999]	n/a	0	0	0	n/a	n/a	0.0	0	0	0	catFR3	0	R1236J
1030.999	3.549	2098480	PROB	3.526	n/a	n/a	n/a	-999	0	9	[6, 2, 6]	14	0	0	0	n/a	n/a	0.0	0	0	0	catFR3	0	R1236J
1034.548	3.435	2102029	PROB	3.411	n/a	n/a	n/a	-999	0	9	[4, 1, 7]	12	0	0	0	n/a	n/a	0.0	0	0	0	catFR3	0	R1236J
1037.983	4.65	2105464	PROB	4.621	n/a	n/a	n/a	-999	0	9	[8, 4, 7]	19	0	0	0	n/a	n/a	0.0	0	0	0	catFR3	0	R1236J
1042.633	4.268	2110114	PROB	4.244	n/a	n/a	n/a	-999	0	9	[4, 8, 5]	17	0	0	0	n/a	n/a	0.0	0	0	0	catFR3	0	R1236J
1046.901	6.808	2114382	PROB	6.808	n/a	n/a	n/a	-999	0	9	[9, 8, 4]	21	0	0	0	n/a	n/a	0.0	0	0	0	catFR3	0	R1236J
1053.709	0.009	2121190	STOP	n/a	n/a	n/a	n/a	-999	0	9	[-999, -999, -999]	n/a	0	0	0	n/a	n/a	0.0	0	0	0	catFR3	0	R1236J
1053.718	0.682	2121199	DISTRACT_END	n/a	n/a	n/a	n/a	-999	0	9	[0, 0, 0]	n/a	0	0	0	n/a	n/a	0.0	0	0	0	catFR3	0	R1236J
1054.4	0.5	2121881	RETRIEVAL_ORIENT	n/a	n/a	n/a	n/a	-999	0	9	[0, 0, 0]	n/a	0	0	0	n/a	n/a	0.0	0	0	0	catFR3	0	R1236J
1054.919	1.023	2122400	REC_START	n/a	n/a	n/a	n/a	-999	0	9	[0, 0, 0]	n/a	0	0	0	n/a	n/a	0.0	0	0	0	catFR3	0	R1236J
1055.942	0.927	2123423	REC_WORD	1.023	n/a	ROOF	Building	1	1	9	[0, 0, 0]	n/a	0	0	0	n/a	n/a	0.0	0	0	0	catFR3	0	R1236J
1056.869	1.058	2124350	REC_WORD	1.95	n/a	ROOM	Building	2	1	9	[0, 0, 0]	n/a	0	0	0	n/a	n/a	0.0	0	0	0	catFR3	0	R1236J
1057.927	2.545	2125408	REC_WORD	3.008	n/a	ATTIC	Building	10	1	9	[0, 0, 0]	n/a	0	0	0	n/a	n/a	0.0	0	0	0	catFR3	0	R1236J
1060.472	1.771	2127953	REC_WORD	5.553	n/a	CEILING	Building	9	1	9	[0, 0, 0]	n/a	0	0	0	n/a	n/a	0.0	0	0	0	catFR3	0	R1236J
1062.243	1.98	2129724	REC_WORD	7.324	n/a	MICROWAVE	Electronics	3	1	9	[0, 0, 0]	n/a	0	0	0	n/a	n/a	0.0	0	0	0	catFR3	0	R1236J
1064.223	1.052	2131704	REC_WORD	9.304	n/a	TELEVISION	Electronics	4	1	9	[0, 0, 0]	n/a	0	0	0	n/a	n/a	0.0	0	0	0	catFR3	0	R1236J
1065.275	6.322	2132756	REC_WORD	10.356	n/a	SCANNER	Electronics	7	1	9	[0, 0, 0]	n/a	0	0	0	n/a	n/a	0.0	0	0	0	catFR3	0	R1236J
1071.597	2.382	2139078	REC_WORD	16.678	n/a	PETUNIA	Flowers	12	1	9	[0, 0, 0]	n/a	0	0	0	n/a	n/a	0.0	0	0	0	catFR3	0	R1236J
1073.979	1.554	2141460	REC_WORD	19.06	n/a	LILAC	Flowers	11	1	9	[0, 0, 0]	n/a	0	0	0	n/a	n/a	0.0	0	0	0	catFR3	0	R1236J
1075.533	2.097	2143014	REC_WORD	20.614	n/a	DAISY	Flowers	5	1	9	[0, 0, 0]	n/a	0	0	0	n/a	n/a	0.0	0	0	0	catFR3	0	R1236J
1077.63	7.3	2145111	REC_WORD	22.711	n/a	SUNFLOWER	Flowers	6	1	9	[0, 0, 0]	n/a	0	0	0	n/a	n/a	0.0	0	0	0	catFR3	0	R1236J
1084.93	4.109	2152411	REC_END	n/a	n/a	n/a	n/a	-999	0	9	[0, 0, 0]	n/a	0	0	0	n/a	n/a	0.0	0	0	0	catFR3	0	R1236J
1089.039	0.5	2156520	TRIAL	n/a	n/a	n/a	n/a	-999	0	10	[0, 0, 0]	n/a	0	0	0	n/a	n/a	0.0	0	0	0	catFR3	0	R1236J
1089.539	10.0	2157020	COUNTDOWN_START	n/a	n/a	n/a	n/a	-999	0	10	[0, 0, 0]	n/a	0	0	0	n/a	n/a	0.0	0	0	0	catFR3	0	R1236J
1099.967	0.007	2167448	COUNTDOWN_END	n/a	n/a	n/a	n/a	-999	0	10	[0, 0, 0]	n/a	0	0	0	n/a	n/a	0.0	0	0	0	catFR3	0	R1236J
1099.974	1.6	2167455	ORIENT	n/a	n/a	n/a	n/a	-999	0	10	[0, 0, 0]	n/a	0	0	0	n/a	n/a	0.0	0	0	0	catFR3	0	R1236J
1101.59	2.201	2169071	ORIENT_OFF	n/a	n/a	n/a	n/a	-999	0	10	[0, 0, 0]	n/a	0	0	0	n/a	n/a	0.0	0	0	0	catFR3	0	R1236J
1103.791	1.6	2171272	WORD	n/a	wordpools/wordpool.txt	COW	FarmAnimals	1	0	10	[0, 0, 0]	n/a	0	0	0	n/a	n/a	0.0	0	0	0	catFR3	0	R1236J
1105.407	0.934	2172888	WORD_OFF	n/a	n/a	COW	n/a	1	0	10	[0, 0, 0]	n/a	0	0	0	n/a	n/a	0.0	0	0	0	catFR3	0	R1236J
1106.341	1.6	2173822	WORD	n/a	wordpools/wordpool.txt	CALF	FarmAnimals	2	0	10	[0, 0, 0]	n/a	0	0	0	n/a	n/a	0.0	0	0	0	catFR3	0	R1236J
1107.958	0.85	2175439	WORD_OFF	n/a	n/a	CALF	n/a	2	0	10	[0, 0, 0]	n/a	0	0	0	n/a	n/a	0.0	0	0	0	catFR3	0	R1236J
1108.808	1.6	2176289	WORD	n/a	wordpools/wordpool.txt	BLUEBERRY	Fruit	3	0	10	[0, 0, 0]	n/a	0	0	0	n/a	n/a	0.0	0	0	0	catFR3	0	R1236J
1110.424	1.0	2177905	WORD_OFF	n/a	n/a	BLUEBERRY	n/a	3	0	10	[0, 0, 0]	n/a	0	0	0	n/a	n/a	0.0	0	0	0	catFR3	0	R1236J
1111.424	1.6	2178905	WORD	n/a	wordpools/wordpool.txt	STRAWBERRY	Fruit	4	0	10	[0, 0, 0]	n/a	0	0	0	n/a	n/a	0.0	0	0	0	catFR3	0	R1236J
1113.026	0.767	2180507	WORD_OFF	n/a	n/a	STRAWBERRY	n/a	4	0	10	[0, 0, 0]	n/a	0	0	0	n/a	n/a	0.0	0	0	0	catFR3	0	R1236J
1113.793	1.6	2181274	WORD	n/a	wordpools/wordpool.txt	FUDGE	Desserts	5	1	10	[0, 0, 0]	n/a	0	0	0	n/a	n/a	0.0	0	0	0	catFR3	0	R1236J
1115.408	0.901	2182889	WORD_OFF	n/a	n/a	FUDGE	n/a	5	0	10	[0, 0, 0]	n/a	0	0	0	n/a	n/a	0.0	0	0	0	catFR3	0	R1236J
1116.309	1.6	2183790	WORD	n/a	wordpools/wordpool.txt	COOKIE	Desserts	6	1	10	[0, 0, 0]	n/a	0	0	0	n/a	n/a	0.0	0	0	0	catFR3	0	R1236J
1117.926	0.95	2185407	WORD_OFF	n/a	n/a	COOKIE	n/a	6	0	10	[0, 0, 0]	n/a	0	0	0	n/a	n/a	0.0	0	0	0	catFR3	0	R1236J
1118.876	1.6	2186357	WORD	n/a	wordpools/wordpool.txt	LIME	Fruit	7	0	10	[0, 0, 0]	n/a	0	0	0	n/a	n/a	0.0	0	0	0	catFR3	0	R1236J
1120.492	0.9	2187973	WORD_OFF	n/a	n/a	LIME	n/a	7	0	10	[0, 0, 0]	n/a	0	0	0	n/a	n/a	0.0	0	0	0	catFR3	0	R1236J
1121.392	1.6	2188873	WORD	n/a	wordpools/wordpool.txt	PEACH	Fruit	8	0	10	[0, 0, 0]	n/a	0	0	0	n/a	n/a	0.0	0	0	0	catFR3	0	R1236J
1123.01	0.801	2190491	WORD_OFF	n/a	n/a	PEACH	n/a	8	0	10	[0, 0, 0]	n/a	0	0	0	n/a	n/a	0.0	0	0	0	catFR3	0	R1236J
1123.811	1.6	2191292	WORD	n/a	wordpools/wordpool.txt	TURKEY	FarmAnimals	9	0	10	[0, 0, 0]	n/a	0	0	0	n/a	n/a	0.0	0	0	0	catFR3	0	R1236J
1125.426	0.901	2192907	WORD_OFF	n/a	n/a	TURKEY	n/a	9	0	10	[0, 0, 0]	n/a	0	0	0	n/a	n/a	0.0	0	0	0	catFR3	0	R1236J
1126.327	1.6	2193808	WORD	n/a	wordpools/wordpool.txt	LAMB	FarmAnimals	10	0	10	[0, 0, 0]	n/a	0	0	0	n/a	n/a	0.0	0	0	0	catFR3	0	R1236J
1127.944	0.867	2195425	WORD_OFF	n/a	n/a	LAMB	n/a	10	0	10	[0, 0, 0]	n/a	0	0	0	n/a	n/a	0.0	0	0	0	catFR3	0	R1236J
1128.811	1.6	2196292	WORD	n/a	wordpools/wordpool.txt	CUPCAKE	Desserts	11	0	10	[0, 0, 0]	n/a	0	0	0	n/a	n/a	0.0	0	0	0	catFR3	0	R1236J
1130.427	0.818	2197908	WORD_OFF	n/a	n/a	CUPCAKE	n/a	11	0	10	[0, 0, 0]	n/a	0	0	0	n/a	n/a	0.0	0	0	0	catFR3	0	R1236J
1131.245	1.6	2198726	WORD	n/a	wordpools/wordpool.txt	CHEESECAKE	Desserts	12	1	10	[0, 0, 0]	n/a	0	0	0	n/a	n/a	0.0	0	0	0	catFR3	0	R1236J
1132.862	0.0	2200343	ENCODING_END	n/a	n/a	n/a	n/a	-999	0	10	[0, 0, 0]	n/a	0	0	0	n/a	n/a	0.0	0	0	0	catFR3	0	R1236J
1132.862	0.052	2200343	WORD_OFF	n/a	n/a	CHEESECAKE	n/a	12	0	10	[0, 0, 0]	n/a	0	0	0	n/a	n/a	0.0	0	0	0	catFR3	0	R1236J
1132.914	0.001	2200395	DISTRACT_START	n/a	n/a	n/a	n/a	-999	0	10	[0, 0, 0]	n/a	0	0	0	n/a	n/a	0.0	0	0	0	catFR3	0	R1236J
1132.915	0.013	2200396	START	n/a	n/a	n/a	n/a	-999	0	10	[-999, -999, -999]	n/a	0	0	0	n/a	n/a	0.0	0	0	0	catFR3	0	R1236J
1132.928	4.284	2200409	PROB	4.249	n/a	n/a	n/a	-999	0	10	[5, 6, 2]	13	0	0	0	n/a	n/a	0.0	0	0	0	catFR3	0	R1236J
1137.212	5.333	2204693	PROB	5.301	n/a	n/a	n/a	-999	0	10	[9, 6, 5]	20	0	0	0	n/a	n/a	0.0	0	0	0	catFR3	0	R1236J
1142.545	3.067	2210026	PROB	3.039	n/a	n/a	n/a	-999	0	10	[9, 3, 7]	19	0	0	0	n/a	n/a	0.0	0	0	0	catFR3	0	R1236J
1145.612	3.118	2213093	PROB	3.085	n/a	n/a	n/a	-999	0	10	[4, 1, 3]	8	0	0	0	n/a	n/a	0.0	0	0	0	catFR3	0	R1236J
1148.73	3.584	2216211	PROB	3.559	n/a	n/a	n/a	-999	0	10	[9, 6, 2]	17	0	0	0	n/a	n/a	0.0	0	0	0	catFR3	0	R1236J
1152.314	3.04	2219795	PROB	3.04	n/a	n/a	n/a	-999	0	10	[9, 2, 8]	19	0	0	0	n/a	n/a	0.0	0	0	0	catFR3	0	R1236J
1155.354	0.011	2222835	STOP	n/a	n/a	n/a	n/a	-999	0	10	[-999, -999, -999]	n/a	0	0	0	n/a	n/a	0.0	0	0	0	catFR3	0	R1236J
1155.365	0.55	2222846	DISTRACT_END	n/a	n/a	n/a	n/a	-999	0	10	[0, 0, 0]	n/a	0	0	0	n/a	n/a	0.0	0	0	0	catFR3	0	R1236J
1155.915	0.5	2223396	RETRIEVAL_ORIENT	n/a	n/a	n/a	n/a	-999	0	10	[0, 0, 0]	n/a	0	0	0	n/a	n/a	0.0	0	0	0	catFR3	0	R1236J
1156.431	0.606	2223912	REC_START	n/a	n/a	n/a	n/a	-999	0	10	[0, 0, 0]	n/a	0	0	0	n/a	n/a	0.0	0	0	0	catFR3	0	R1236J
1157.037	0.968	2224518	REC_WORD	0.606	n/a	FUDGE	Desserts	5	1	10	[0, 0, 0]	n/a	0	0	0	n/a	n/a	0.0	0	0	0	catFR3	0	R1236J
1158.005	1.661	2225486	REC_WORD	1.574	n/a	COOKIE	Desserts	6	1	10	[0, 0, 0]	n/a	0	0	0	n/a	n/a	0.0	0	0	0	catFR3	0	R1236J
1159.666	17.649	2227147	REC_WORD	3.235	n/a	CHEESECAKE	Desserts	12	1	10	[0, 0, 0]	n/a	0	0	0	n/a	n/a	0.0	0	0	0	catFR3	0	R1236J
1177.315	9.126	2244796	REC_WORD_VV	20.884	n/a	<>	n/a	-999	0	10	[0, 0, 0]	n/a	0	0	0	n/a	n/a	0.0	0	0	0	catFR3	0	R1236J
1186.441	6.994	2253922	REC_END	n/a	n/a	n/a	n/a	-999	0	10	[0, 0, 0]	n/a	0	0	0	n/a	n/a	0.0	0	0	0	catFR3	0	R1236J
1193.435	0.5	2260916	TRIAL	n/a	n/a	n/a	n/a	-999	0	11	[0, 0, 0]	n/a	0	1	0	n/a	n/a	0.0	0	0	0	catFR3	0	R1236J
1193.935	10.0	2261416	COUNTDOWN_START	n/a	n/a	n/a	n/a	-999	0	11	[0, 0, 0]	n/a	0	1	0	n/a	n/a	0.0	0	0	0	catFR3	0	R1236J
1204.363	0.007	2271844	COUNTDOWN_END	n/a	n/a	n/a	n/a	-999	0	11	[0, 0, 0]	n/a	0	1	0	n/a	n/a	0.0	0	0	0	catFR3	0	R1236J
1204.37	1.6	2271851	ORIENT	n/a	n/a	n/a	n/a	-999	0	11	[0, 0, 0]	n/a	0	1	0	n/a	n/a	0.0	0	0	0	catFR3	0	R1236J
1205.987	2.234	2273468	ORIENT_OFF	n/a	n/a	n/a	n/a	-999	0	11	[0, 0, 0]	n/a	0	1	0	n/a	n/a	0.0	0	0	0	catFR3	0	R1236J
1208.221	1.6	2275702	WORD	n/a	wordpools/wordpool.txt	PLANKTON	OceanAnimals	1	1	11	[0, 0, 0]	n/a	0	1	0	n/a	n/a	0.0	0	0	0	catFR3	0	R1236J
1209.838	0.967	2277319	WORD_OFF	n/a	n/a	PLANKTON	n/a	1	0	11	[0, 0, 0]	n/a	0	1	0	n/a	n/a	0.0	0	0	0	catFR3	0	R1236J
1210.805	1.6	2278286	WORD	n/a	wordpools/wordpool.txt	SQUID	OceanAnimals	2	1	11	[0, 0, 0]	n/a	0	1	0	n/a	n/a	0.0	0	0	0	catFR3	0	R1236J
1212.421	0.868	2279902	WORD_OFF	n/a	n/a	SQUID	n/a	2	0	11	[0, 0, 0]	n/a	0	1	0	n/a	n/a	0.0	0	0	0	catFR3	0	R1236J
1213.289	1.6	2280770	WORD	n/a	wordpools/wordpool.txt	SNOW	Weather	3	0	11	[0, 0, 0]	n/a	0	1	0	n/a	n/a	0.0	0	0	0	catFR3	0	R1236J
1214.905	0.058	2282386	WORD_OFF	n/a	n/a	SNOW	n/a	3	0	11	[0, 0, 0]	n/a	0	1	0	n/a	n/a	0.0	0	0	0	catFR3	0	R1236J
1214.963	0.5	2282444	STIM_ON	n/a	n/a	n/a	n/a	3	0	11	[0, 0, 0]	n/a	1	1	500	LS4	LS5	500.0	100	50	300	catFR3	0	R1236J
1215.453	0.436	2282934	STIM_OFF	n/a	n/a	n/a	n/a	3	0	11	[0, 0, 0]	n/a	0	1	500	LS4	LS5	500.0	100	50	300	catFR3	0	R1236J
1215.889	1.6	2283370	WORD	n/a	wordpools/wordpool.txt	RAIN	Weather	4	0	11	[0, 0, 0]	n/a	0	1	0	n/a	n/a	0.0	0	0	0	catFR3	0	R1236J
1217.504	0.818	2284985	WORD_OFF	n/a	n/a	RAIN	n/a	4	0	11	[0, 0, 0]	n/a	0	1	0	n/a	n/a	0.0	0	0	0	catFR3	0	R1236J
1218.322	1.6	2285803	WORD	n/a	wordpools/wordpool.txt	ROSE	Flowers	5	1	11	[0, 0, 0]	n/a	0	1	0	n/a	n/a	0.0	0	0	0	catFR3	0	R1236J
1219.939	0.056	2287420	WORD_OFF	n/a	n/a	ROSE	n/a	5	0	11	[0, 0, 0]	n/a	0	1	0	n/a	n/a	0.0	0	0	0	catFR3	0	R1236J
1219.995	0.5	2287476	STIM_ON	n/a	n/a	n/a	n/a	5	0	11	[0, 0, 0]	n/a	1	1	500	LS4	LS5	500.0	100	50	300	catFR3	0	R1236J
1220.485	0.404	2287966	STIM_OFF	n/a	n/a	n/a	n/a	5	0	11	[0, 0, 0]	n/a	0	1	500	LS4	LS5	500.0	100	50	300	catFR3	0	R1236J
1220.889	1.6	2288370	WORD	n/a	wordpools/wordpool.txt	TULIP	Flowers	6	1	11	[0, 0, 0]	n/a	0	1	0	n/a	n/a	0.0	0	0	0	catFR3	0	R1236J
1222.505	0.785	2289986	WORD_OFF	n/a	n/a	TULIP	n/a	6	0	11	[0, 0, 0]	n/a	0	1	0	n/a	n/a	0.0	0	0	0	catFR3	0	R1236J
1223.29	1.6	2290771	WORD	n/a	wordpools/wordpool.txt	LOBSTER	OceanAnimals	7	0	11	[0, 0, 0]	n/a	0	1	0	n/a	n/a	0.0	0	0	0	catFR3	0	R1236J
1224.907	0.055	2292388	WORD_OFF	n/a	n/a	LOBSTER	n/a	7	0	11	[0, 0, 0]	n/a	0	1	0	n/a	n/a	0.0	0	0	0	catFR3	0	R1236J
1224.962	0.5	2292443	STIM_ON	n/a	n/a	n/a	n/a	7	0	11	[0, 0, 0]	n/a	1	1	500	LS4	LS5	500.0	100	50	300	catFR3	0	R1236J
1225.452	0.338	2292933	STIM_OFF	n/a	n/a	n/a	n/a	7	0	11	[0, 0, 0]	n/a	0	1	500	LS4	LS5	500.0	100	50	300	catFR3	0	R1236J
1225.79	1.6	2293271	WORD	n/a	wordpools/wordpool.txt	OYSTER	OceanAnimals	8	0	11	[0, 0, 0]	n/a	0	1	0	n/a	n/a	0.0	0	0	0	catFR3	0	R1236J
1227.406	0.934	2294887	WORD_OFF	n/a	n/a	OYSTER	n/a	8	0	11	[0, 0, 0]	n/a	0	1	0	n/a	n/a	0.0	0	0	0	catFR3	0	R1236J
1228.34	1.6	2295821	WORD	n/a	wordpools/wordpool.txt	TORNADO	Weather	9	0	11	[0, 0, 0]	n/a	0	1	0	n/a	n/a	0.0	0	0	0	catFR3	0	R1236J
1229.957	0.967	2297438	WORD_OFF	n/a	n/a	TORNADO	n/a	9	0	11	[0, 0, 0]	n/a	0	1	0	n/a	n/a	0.0	0	0	0	catFR3	0	R1236J
1230.924	1.6	2298405	WORD	n/a	wordpools/wordpool.txt	CLOUD	Weather	10	0	11	[0, 0, 0]	n/a	0	1	0	n/a	n/a	0.0	0	0	0	catFR3	0	R1236J
1232.54	0.067	2300021	WORD_OFF	n/a	n/a	CLOUD	n/a	10	0	11	[0, 0, 0]	n/a	0	1	0	n/a	n/a	0.0	0	0	0	catFR3	0	R1236J
1232.607	0.5	2300088	STIM_ON	n/a	n/a	n/a	n/a	10	0	11	[0, 0, 0]	n/a	1	1	500	LS4	LS5	500.0	100	50	300	catFR3	0	R1236J
1233.097	0.293	2300578	STIM_OFF	n/a	n/a	n/a	n/a	10	0	11	[0, 0, 0]	n/a	0	1	500	LS4	LS5	500.0	100	50	300	catFR3	0	R1236J
1233.39	1.6	2300871	WORD	n/a	wordpools/wordpool.txt	DAFFODIL	Flowers	11	0	11	[0, 0, 0]	n/a	0	1	0	n/a	n/a	0.0	0	0	0	catFR3	0	R1236J
1235.008	0.067	2302489	WORD_OFF	n/a	n/a	DAFFODIL	n/a	11	0	11	[0, 0, 0]	n/a	0	1	0	n/a	n/a	0.0	0	0	0	catFR3	0	R1236J
1235.075	0.5	2302556	STIM_ON	n/a	n/a	n/a	n/a	11	0	11	[0, 0, 0]	n/a	1	1	500	LS4	LS5	500.0	100	50	300	catFR3	0	R1236J
1235.565	0.343	2303046	STIM_OFF	n/a	n/a	n/a	n/a	11	0	11	[0, 0, 0]	n/a	0	1	500	LS4	LS5	500.0	100	50	300	catFR3	0	R1236J
1235.908	1.6	2303389	WORD	n/a	wordpools/wordpool.txt	ORCHID	Flowers	12	0	11	[0, 0, 0]	n/a	0	1	0	n/a	n/a	0.0	0	0	0	catFR3	0	R1236J
1237.524	0.0	2305005	ENCODING_END	n/a	n/a	n/a	n/a	-999	0	11	[0, 0, 0]	n/a	0	1	0	n/a	n/a	0.0	0	0	0	catFR3	0	R1236J
1237.524	0.059	2305005	WORD_OFF	n/a	n/a	ORCHID	n/a	12	0	11	[0, 0, 0]	n/a	0	1	0	n/a	n/a	0.0	0	0	0	catFR3	0	R1236J
1237.583	0.0	2305064	DISTRACT_START	n/a	n/a	n/a	n/a	-999	0	11	[0, 0, 0]	n/a	0	1	0	n/a	n/a	0.0	0	0	0	catFR3	0	R1236J
1237.583	0.007	2305064	START	n/a	n/a	n/a	n/a	-999	0	11	[-999, -999, -999]	n/a	0	1	0	n/a	n/a	0.0	0	0	0	catFR3	0	R1236J
1237.59	3.834	2305071	PROB	3.806	n/a	n/a	n/a	-999	0	11	[5, 6, 4]	15	0	1	0	n/a	n/a	0.0	0	0	0	catFR3	0	R1236J
1241.424	2.885	2308905	PROB	2.86	n/a	n/a	n/a	-999	0	11	[1, 7, 2]	10	0	1	0	n/a	n/a	0.0	0	0	0	catFR3	0	R1236J
1244.309	2.701	2311790	PROB	2.663	n/a	n/a	n/a	-999	0	11	[1, 4, 5]	10	0	1	0	n/a	n/a	0.0	0	0	0	catFR3	0	R1236J
1247.01	2.816	2314491	PROB	2.78	n/a	n/a	n/a	-999	0	11	[5, 7, 1]	13	0	1	0	n/a	n/a	0.0	0	0	0	catFR3	0	R1236J
1249.826	2.85	2317307	PROB	2.826	n/a	n/a	n/a	-999	0	11	[2, 8, 7]	17	0	1	0	n/a	n/a	0.0	0	0	0	catFR3	0	R1236J
1252.676	2.301	2320157	PROB	2.264	n/a	n/a	n/a	-999	0	11	[1, 6, 4]	11	0	1	0	n/a	n/a	0.0	0	0	0	catFR3	0	R1236J
1254.977	4.243	2322458	PROB	4.243	n/a	n/a	n/a	-999	0	11	[2, 3, 9]	14	0	1	0	n/a	n/a	0.0	0	0	0	catFR3	0	R1236J
1259.22	0.008	2326701	STOP	n/a	n/a	n/a	n/a	-999	0	11	[-999, -999, -999]	n/a	0	1	0	n/a	n/a	0.0	0	0	0	catFR3	0	R1236J
1259.228	0.516	2326709	DISTRACT_END	n/a	n/a	n/a	n/a	-999	0	11	[0, 0, 0]	n/a	0	1	0	n/a	n/a	0.0	0	0	0	catFR3	0	R1236J
1259.744	0.5	2327225	RETRIEVAL_ORIENT	n/a	n/a	n/a	n/a	-999	0	11	[0, 0, 0]	n/a	0	1	0	n/a	n/a	0.0	0	0	0	catFR3	0	R1236J
1260.262	1.101	2327743	REC_START	n/a	n/a	n/a	n/a	-999	0	11	[0, 0, 0]	n/a	0	1	0	n/a	n/a	0.0	0	0	0	catFR3	0	R1236J
1261.363	1.72	2328844	REC_WORD	1.101	n/a	PLANKTON	OceanAnimals	1	1	11	[0, 0, 0]	n/a	0	1	0	n/a	n/a	0.0	0	0	0	catFR3	0	R1236J
1263.083	4.385	2330564	REC_WORD	2.821	n/a	SQUID	OceanAnimals	2	1	11	[0, 0, 0]	n/a	0	1	0	n/a	n/a	0.0	0	0	0	catFR3	0	R1236J
1267.468	1.974	2334949	REC_WORD	7.206	n/a	ROSE	Flowers	5	1	11	[0, 0, 0]	n/a	0	1	0	n/a	n/a	0.0	0	0	0	catFR3	0	R1236J
1269.442	9.913	2336923	REC_WORD	9.18	n/a	TULIP	Flowers	6	1	11	[0, 0, 0]	n/a	0	1	0	n/a	n/a	0.0	0	0	0	catFR3	0	R1236J
1279.355	2.317	2346836	REC_WORD	19.093	n/a	TURKEY	n/a	-999	0	11	[0, 0, 0]	n/a	0	1	0	n/a	n/a	0.0	0	0	0	catFR3	0	R1236J
1281.672	1.271	2349153	REC_WORD	21.41	n/a	COW	n/a	-999	0	11	[0, 0, 0]	n/a	0	1	0	n/a	n/a	0.0	0	0	0	catFR3	0	R1236J
1282.943	5.705	2350424	REC_WORD	22.681	n/a	CALF	n/a	-999	0	11	[0, 0, 0]	n/a	0	1	0	n/a	n/a	0.0	0	0	0	catFR3	0	R1236J
1288.648	1.624	2356129	REC_WORD	28.386	n/a	LAMB	n/a	-999	0	11	[0, 0, 0]	n/a	0	1	0	n/a	n/a	0.0	0	0	0	catFR3	0	R1236J
1290.272	4.627	2357753	REC_END	n/a	n/a	n/a	n/a	-999	0	11	[0, 0, 0]	n/a	0	1	0	n/a	n/a	0.0	0	0	0	catFR3	0	R1236J
1294.899	0.5	2362380	TRIAL	n/a	n/a	n/a	n/a	-999	0	12	[0, 0, 0]	n/a	0	1	0	n/a	n/a	0.0	0	0	0	catFR3	0	R1236J
1295.399	10.0	2362880	COUNTDOWN_START	n/a	n/a	n/a	n/a	-999	0	12	[0, 0, 0]	n/a	0	1	0	n/a	n/a	0.0	0	0	0	catFR3	0	R1236J
1305.827	0.006	2373308	COUNTDOWN_END	n/a	n/a	n/a	n/a	-999	0	12	[0, 0, 0]	n/a	0	1	0	n/a	n/a	0.0	0	0	0	catFR3	0	R1236J
1305.833	1.6	2373314	ORIENT	n/a	n/a	n/a	n/a	-999	0	12	[0, 0, 0]	n/a	0	1	0	n/a	n/a	0.0	0	0	0	catFR3	0	R1236J
1307.449	2.017	2374930	ORIENT_OFF	n/a	n/a	n/a	n/a	-999	0	12	[0, 0, 0]	n/a	0	1	0	n/a	n/a	0.0	0	0	0	catFR3	0	R1236J
1309.466	1.6	2376947	WORD	n/a	wordpools/wordpool.txt	BATHROOM	Building	1	1	12	[0, 0, 0]	n/a	0	1	0	n/a	n/a	0.0	0	0	0	catFR3	0	R1236J
1311.084	0.817	2378565	WORD_OFF	n/a	n/a	BATHROOM	n/a	1	0	12	[0, 0, 0]	n/a	0	1	0	n/a	n/a	0.0	0	0	0	catFR3	0	R1236J
1311.901	1.6	2379382	WORD	n/a	wordpools/wordpool.txt	WALL	Building	2	1	12	[0, 0, 0]	n/a	0	1	0	n/a	n/a	0.0	0	0	0	catFR3	0	R1236J
1313.517	0.851	2380998	WORD_OFF	n/a	n/a	WALL	n/a	2	0	12	[0, 0, 0]	n/a	0	1	0	n/a	n/a	0.0	0	0	0	catFR3	0	R1236J
1314.368	1.6	2381849	WORD	n/a	wordpools/wordpool.txt	EVERGREEN	Trees	3	0	12	[0, 0, 0]	n/a	0	1	0	n/a	n/a	0.0	0	0	0	catFR3	0	R1236J
1315.985	0.9	2383466	WORD_OFF	n/a	n/a	EVERGREEN	n/a	3	0	12	[0, 0, 0]	n/a	0	1	0	n/a	n/a	0.0	0	0	0	catFR3	0	R1236J
1316.885	1.6	2384366	WORD	n/a	wordpools/wordpool.txt	BIRCH	Trees	4	0	12	[0, 0, 0]	n/a	0	1	0	n/a	n/a	0.0	0	0	0	catFR3	0	R1236J
1318.501	0.073	2385982	WORD_OFF	n/a	n/a	BIRCH	n/a	4	0	12	[0, 0, 0]	n/a	0	1	0	n/a	n/a	0.0	0	0	0	catFR3	0	R1236J
1318.574	0.5	2386055	STIM_ON	n/a	n/a	n/a	n/a	4	0	12	[0, 0, 0]	n/a	1	1	500	LS4	LS5	500.0	100	50	300	catFR3	0	R1236J
1319.064	0.37	2386545	STIM_OFF	n/a	n/a	n/a	n/a	4	0	12	[0, 0, 0]	n/a	0	1	500	LS4	LS5	500.0	100	50	300	catFR3	0	R1236J
1319.434	1.6	2386915	WORD	n/a	wordpools/wordpool.txt	SPARROW	Birds	5	0	12	[0, 0, 0]	n/a	0	1	0	n/a	n/a	0.0	0	0	0	catFR3	0	R1236J
1321.036	0.085	2388517	WORD_OFF	n/a	n/a	SPARROW	n/a	5	0	12	[0, 0, 0]	n/a	0	1	0	n/a	n/a	0.0	0	0	0	catFR3	0	R1236J
1321.121	0.5	2388602	STIM_ON	n/a	n/a	n/a	n/a	5	0	12	[0, 0, 0]	n/a	1	1	500	LS4	LS5	500.0	100	50	300	catFR3	0	R1236J
1321.611	0.408	2389092	STIM_OFF	n/a	n/a	n/a	n/a	5	0	12	[0, 0, 0]	n/a	0	1	500	LS4	LS5	500.0	100	50	300	catFR3	0	R1236J
1322.019	1.6	2389500	WORD	n/a	wordpools/wordpool.txt	SEAGULL	Birds	6	1	12	[0, 0, 0]	n/a	0	1	0	n/a	n/a	0.0	0	0	0	catFR3	0	R1236J
1323.635	0.073	2391116	WORD_OFF	n/a	n/a	SEAGULL	n/a	6	0	12	[0, 0, 0]	n/a	0	1	0	n/a	n/a	0.0	0	0	0	catFR3	0	R1236J
1323.708	0.5	2391189	STIM_ON	n/a	n/a	n/a	n/a	6	0	12	[0, 0, 0]	n/a	1	1	500	LS4	LS5	500.0	100	50	300	catFR3	0	R1236J
1324.198	0.337	2391679	STIM_OFF	n/a	n/a	n/a	n/a	6	0	12	[0, 0, 0]	n/a	0	1	500	LS4	LS5	500.0	100	50	300	catFR3	0	R1236J
1324.535	1.6	2392016	WORD	n/a	wordpools/wordpool.txt	CYPRESS	Trees	7	0	12	[0, 0, 0]	n/a	0	1	0	n/a	n/a	0.0	0	0	0	catFR3	0	R1236J
1326.153	0.078	2393634	WORD_OFF	n/a	n/a	CYPRESS	n/a	7	0	12	[0, 0, 0]	n/a	0	1	0	n/a	n/a	0.0	0	0	0	catFR3	0	R1236J
1326.231	0.5	2393712	STIM_ON	n/a	n/a	n/a	n/a	7	0	12	[0, 0, 0]	n/a	1	1	500	LS4	LS5	500.0	100	50	300	catFR3	0	R1236J
1326.721	0.382	2394202	STIM_OFF	n/a	n/a	n/a	n/a	7	0	12	[0, 0, 0]	n/a	0	1	500	LS4	LS5	500.0	100	50	300	catFR3	0	R1236J
1327.103	1.6	2394584	WORD	n/a	wordpools/wordpool.txt	OAK	Trees	8	0	12	[0, 0, 0]	n/a	0	1	0	n/a	n/a	0.0	0	0	0	catFR3	0	R1236J
1328.72	0.073	2396201	WORD_OFF	n/a	n/a	OAK	n/a	8	0	12	[0, 0, 0]	n/a	0	1	0	n/a	n/a	0.0	0	0	0	catFR3	0	R1236J
1328.793	0.5	2396274	STIM_ON	n/a	n/a	n/a	n/a	8	0	12	[0, 0, 0]	n/a	1	1	500	LS4	LS5	500.0	100	50	300	catFR3	0	R1236J
1329.283	0.403	2396764	STIM_OFF	n/a	n/a	n/a	n/a	8	0	12	[0, 0, 0]	n/a	0	1	500	LS4	LS5	500.0	100	50	300	catFR3	0	R1236J
1329.686	1.6	2397167	WORD	n/a	wordpools/wordpool.txt	STAIRS	Building	9	1	12	[0, 0, 0]	n/a	0	1	0	n/a	n/a	0.0	0	0	0	catFR3	0	R1236J
1331.304	0.083	2398785	WORD_OFF	n/a	n/a	STAIRS	n/a	9	0	12	[0, 0, 0]	n/a	0	1	0	n/a	n/a	0.0	0	0	0	catFR3	0	R1236J
1331.387	0.5	2398868	STIM_ON	n/a	n/a	n/a	n/a	9	0	12	[0, 0, 0]	n/a	1	1	500	LS4	LS5	500.0	100	50	300	catFR3	0	R1236J
1331.877	0.26	2399358	STIM_OFF	n/a	n/a	n/a	n/a	9	0	12	[0, 0, 0]	n/a	0	1	500	LS4	LS5	500.0	100	50	300	catFR3	0	R1236J
1332.137	1.6	2399618	WORD	n/a	wordpools/wordpool.txt	DOOR	Building	10	0	12	[0, 0, 0]	n/a	0	1	0	n/a	n/a	0.0	0	0	0	catFR3	0	R1236J
1333.754	0.081	2401235	WORD_OFF	n/a	n/a	DOOR	n/a	10	0	12	[0, 0, 0]	n/a	0	1	0	n/a	n/a	0.0	0	0	0	catFR3	0	R1236J
1333.835	0.5	2401316	STIM_ON	n/a	n/a	n/a	n/a	10	0	12	[0, 0, 0]	n/a	1	1	500	LS4	LS5	500.0	100	50	300	catFR3	0	R1236J
1334.325	0.261	2401806	STIM_OFF	n/a	n/a	n/a	n/a	10	0	12	[0, 0, 0]	n/a	0	1	500	LS4	LS5	500.0	100	50	300	catFR3	0	R1236J
1334.586	1.6	2402067	WORD	n/a	wordpools/wordpool.txt	GOOSE	Birds	11	1	12	[0, 0, 0]	n/a	0	1	0	n/a	n/a	0.0	0	0	0	catFR3	0	R1236J
1336.204	0.079	2403685	WORD_OFF	n/a	n/a	GOOSE	n/a	11	0	12	[0, 0, 0]	n/a	0	1	0	n/a	n/a	0.0	0	0	0	catFR3	0	R1236J
1336.283	0.5	2403764	STIM_ON	n/a	n/a	n/a	n/a	11	0	12	[0, 0, 0]	n/a	1	1	500	LS4	LS5	500.0	100	50	300	catFR3	0	R1236J
1336.773	0.431	2404254	STIM_OFF	n/a	n/a	n/a	n/a	11	0	12	[0, 0, 0]	n/a	0	1	500	LS4	LS5	500.0	100	50	300	catFR3	0	R1236J
1337.204	1.6	2404685	WORD	n/a	wordpools/wordpool.txt	DOVE	Birds	12	0	12	[0, 0, 0]	n/a	0	1	0	n/a	n/a	0.0	0	0	0	catFR3	0	R1236J
1338.821	0.0	2406302	ENCODING_END	n/a	n/a	n/a	n/a	-999	0	12	[0, 0, 0]	n/a	0	1	0	n/a	n/a	0.0	0	0	0	catFR3	0	R1236J
1338.821	0.055	2406302	WORD_OFF	n/a	n/a	DOVE	n/a	12	0	12	[0, 0, 0]	n/a	0	1	0	n/a	n/a	0.0	0	0	0	catFR3	0	R1236J
1338.876	0.0	2406357	DISTRACT_START	n/a	n/a	n/a	n/a	-999	0	12	[0, 0, 0]	n/a	0	1	0	n/a	n/a	0.0	0	0	0	catFR3	0	R1236J
1338.876	0.012	2406357	START	n/a	n/a	n/a	n/a	-999	0	12	[-999, -999, -999]	n/a	0	1	0	n/a	n/a	0.0	0	0	0	catFR3	0	R1236J
1338.888	0.005	2406369	PROB	3.551	n/a	n/a	n/a	-999	0	12	[2, 4, 3]	9	0	1	0	n/a	n/a	0.0	0	0	0	catFR3	0	R1236J
1338.893	0.5	2406374	STIM_ON	n/a	n/a	n/a	n/a	-999	0	12	[0, 0, 0]	n/a	1	1	500	LS4	LS5	500.0	100	50	300	catFR3	0	R1236J
1339.383	3.088	2406864	STIM_OFF	n/a	n/a	n/a	n/a	-999	0	12	[0, 0, 0]	n/a	0	1	500	LS4	LS5	500.0	100	50	300	catFR3	0	R1236J
1342.471	3.133	2409952	PROB	3.105	n/a	n/a	n/a	-999	0	12	[6, 7, 3]	16	0	1	0	n/a	n/a	0.0	0	0	0	catFR3	0	R1236J
1345.604	3.502	2413085	PROB	3.476	n/a	n/a	n/a	-999	0	12	[9, 6, 1]	16	0	1	0	n/a	n/a	0.0	0	0	0	catFR3	0	R1236J
1349.106	4.2	2416587	PROB	4.175	n/a	n/a	n/a	-999	0	12	[2, 9, 3]	14	0	1	0	n/a	n/a	0.0	0	0	0	catFR3	0	R1236J
1353.306	4.401	2420787	PROB	4.365	n/a	n/a	n/a	-999	0	12	[4, 1, 8]	12	0	1	0	n/a	n/a	0.0	0	0	0	catFR3	0	R1236J
1357.707	3.157	2425188	PROB	3.157	n/a	n/a	n/a	-999	0	12	[6, 3, 2]	11	0	1	0	n/a	n/a	0.0	0	0	0	catFR3	0	R1236J
1360.864	0.011	2428345	STOP	n/a	n/a	n/a	n/a	-999	0	12	[-999, -999, -999]	n/a	0	1	0	n/a	n/a	0.0	0	0	0	catFR3	0	R1236J
1360.875	0.615	2428356	DISTRACT_END	n/a	n/a	n/a	n/a	-999	0	12	[0, 0, 0]	n/a	0	1	0	n/a	n/a	0.0	0	0	0	catFR3	0	R1236J
1361.49	0.5	2428971	RETRIEVAL_ORIENT	n/a	n/a	n/a	n/a	-999	0	12	[0, 0, 0]	n/a	0	1	0	n/a	n/a	0.0	0	0	0	catFR3	0	R1236J
1362.013	1.326	2429494	REC_START	n/a	n/a	n/a	n/a	-999	0	12	[0, 0, 0]	n/a	0	1	0	n/a	n/a	0.0	0	0	0	catFR3	0	R1236J
1363.339	0.851	2430820	REC_WORD	1.326	n/a	BATHROOM	Building	1	1	12	[0, 0, 0]	n/a	0	1	0	n/a	n/a	0.0	0	0	0	catFR3	0	R1236J
1364.19	1.611	2431671	REC_WORD	2.177	n/a	WALL	Building	2	1	12	[0, 0, 0]	n/a	0	1	0	n/a	n/a	0.0	0	0	0	catFR3	0	R1236J
1365.801	1.615	2433282	REC_WORD	3.788	n/a	STAIRS	Building	9	1	12	[0, 0, 0]	n/a	0	1	0	n/a	n/a	0.0	0	0	0	catFR3	0	R1236J
1367.416	0.952	2434897	REC_WORD	5.403	n/a	TURKEY	n/a	-999	0	12	[0, 0, 0]	n/a	0	1	0	n/a	n/a	0.0	0	0	0	catFR3	0	R1236J
1368.368	8.08	2435849	REC_WORD	6.355	n/a	GOOSE	Birds	11	1	12	[0, 0, 0]	n/a	0	1	0	n/a	n/a	0.0	0	0	0	catFR3	0	R1236J
1376.448	1.292	2443929	REC_WORD	14.435	n/a	SNOW	n/a	-999	0	12	[0, 0, 0]	n/a	0	1	0	n/a	n/a	0.0	0	0	0	catFR3	0	R1236J
1377.74	1.99	2445221	REC_WORD	15.727	n/a	RAIN	n/a	-999	0	12	[0, 0, 0]	n/a	0	1	0	n/a	n/a	0.0	0	0	0	catFR3	0	R1236J
1379.73	2.929	2447211	REC_WORD	17.717	n/a	CLOUD	n/a	-999	0	12	[0, 0, 0]	n/a	0	1	0	n/a	n/a	0.0	0	0	0	catFR3	0	R1236J
1382.659	3.996	2450140	REC_WORD	20.646	n/a	TORNADO	n/a	-999	0	12	[0, 0, 0]	n/a	0	1	0	n/a	n/a	0.0	0	0	0	catFR3	0	R1236J
1386.655	5.365	2454136	REC_WORD	24.642	n/a	SEAGULL	Birds	6	1	12	[0, 0, 0]	n/a	0	1	0	n/a	n/a	0.0	0	0	0	catFR3	0	R1236J
1392.02	4.408	2459501	REC_END	n/a	n/a	n/a	n/a	-999	0	12	[0, 0, 0]	n/a	0	1	0	n/a	n/a	0.0	0	0	0	catFR3	0	R1236J
1396.428	0.5	2463909	TRIAL	n/a	n/a	n/a	n/a	-999	0	13	[0, 0, 0]	n/a	0	0	0	n/a	n/a	0.0	0	0	0	catFR3	0	R1236J
1396.928	10.0	2464409	COUNTDOWN_START	n/a	n/a	n/a	n/a	-999	0	13	[0, 0, 0]	n/a	0	0	0	n/a	n/a	0.0	0	0	0	catFR3	0	R1236J
1407.356	0.008	2474837	COUNTDOWN_END	n/a	n/a	n/a	n/a	-999	0	13	[0, 0, 0]	n/a	0	0	0	n/a	n/a	0.0	0	0	0	catFR3	0	R1236J
1407.364	1.6	2474845	ORIENT	n/a	n/a	n/a	n/a	-999	0	13	[0, 0, 0]	n/a	0	0	0	n/a	n/a	0.0	0	0	0	catFR3	0	R1236J
1408.98	2.084	2476461	ORIENT_OFF	n/a	n/a	n/a	n/a	-999	0	13	[0, 0, 0]	n/a	0	0	0	n/a	n/a	0.0	0	0	0	catFR3	0	R1236J
1411.064	1.6	2478545	WORD	n/a	wordpools/wordpool.txt	DOLLHOUSE	Toys	1	0	13	[0, 0, 0]	n/a	0	0	0	n/a	n/a	0.0	0	0	0	catFR3	0	R1236J
1412.68	1.018	2480161	WORD_OFF	n/a	n/a	DOLLHOUSE	n/a	1	0	13	[0, 0, 0]	n/a	0	0	0	n/a	n/a	0.0	0	0	0	catFR3	0	R1236J
1413.698	1.6	2481179	WORD	n/a	wordpools/wordpool.txt	MARBLES	Toys	2	0	13	[0, 0, 0]	n/a	0	0	0	n/a	n/a	0.0	0	0	0	catFR3	0	R1236J
1415.314	0.867	2482795	WORD_OFF	n/a	n/a	MARBLES	n/a	2	0	13	[0, 0, 0]	n/a	0	0	0	n/a	n/a	0.0	0	0	0	catFR3	0	R1236J
1416.181	1.6	2483662	WORD	n/a	wordpools/wordpool.txt	NIGHTSTAND	Furniture	3	1	13	[0, 0, 0]	n/a	0	0	0	n/a	n/a	0.0	0	0	0	catFR3	0	R1236J
1417.798	0.816	2485279	WORD_OFF	n/a	n/a	NIGHTSTAND	n/a	3	0	13	[0, 0, 0]	n/a	0	0	0	n/a	n/a	0.0	0	0	0	catFR3	0	R1236J
1418.614	1.6	2486095	WORD	n/a	wordpools/wordpool.txt	RECLINER	Furniture	4	1	13	[0, 0, 0]	n/a	0	0	0	n/a	n/a	0.0	0	0	0	catFR3	0	R1236J
1420.215	0.95	2487696	WORD_OFF	n/a	n/a	RECLINER	n/a	4	0	13	[0, 0, 0]	n/a	0	0	0	n/a	n/a	0.0	0	0	0	catFR3	0	R1236J
1421.165	1.6	2488646	WORD	n/a	wordpools/wordpool.txt	SPINACH	Vegetables	5	1	13	[0, 0, 0]	n/a	0	0	0	n/a	n/a	0.0	0	0	0	catFR3	0	R1236J
1422.782	0.849	2490263	WORD_OFF	n/a	n/a	SPINACH	n/a	5	0	13	[0, 0, 0]	n/a	0	0	0	n/a	n/a	0.0	0	0	0	catFR3	0	R1236J
1423.631	1.6	2491112	WORD	n/a	wordpools/wordpool.txt	ONION	Vegetables	6	1	13	[0, 0, 0]	n/a	0	0	0	n/a	n/a	0.0	0	0	0	catFR3	0	R1236J
1425.249	0.917	2492730	WORD_OFF	n/a	n/a	ONION	n/a	6	0	13	[0, 0, 0]	n/a	0	0	0	n/a	n/a	0.0	0	0	0	catFR3	0	R1236J
1426.166	1.6	2493647	WORD	n/a	wordpools/wordpool.txt	SLINKY	Toys	7	0	13	[0, 0, 0]	n/a	0	0	0	n/a	n/a	0.0	0	0	0	catFR3	0	R1236J
1427.783	0.832	2495264	WORD_OFF	n/a	n/a	SLINKY	n/a	7	0	13	[0, 0, 0]	n/a	0	0	0	n/a	n/a	0.0	0	0	0	catFR3	0	R1236J
1428.615	1.6	2496096	WORD	n/a	wordpools/wordpool.txt	BASKETBALL	Toys	8	0	13	[0, 0, 0]	n/a	0	0	0	n/a	n/a	0.0	0	0	0	catFR3	0	R1236J
1430.216	0.834	2497697	WORD_OFF	n/a	n/a	BASKETBALL	n/a	8	0	13	[0, 0, 0]	n/a	0	0	0	n/a	n/a	0.0	0	0	0	catFR3	0	R1236J
1431.05	1.6	2498531	WORD	n/a	wordpools/wordpool.txt	DRESSER	Furniture	9	1	13	[0, 0, 0]	n/a	0	0	0	n/a	n/a	0.0	0	0	0	catFR3	0	R1236J
1432.666	0.85	2500147	WORD_OFF	n/a	n/a	DRESSER	n/a	9	0	13	[0, 0, 0]	n/a	0	0	0	n/a	n/a	0.0	0	0	0	catFR3	0	R1236J
1433.516	1.6	2500997	WORD	n/a	wordpools/wordpool.txt	BED	Furniture	10	1	13	[0, 0, 0]	n/a	0	0	0	n/a	n/a	0.0	0	0	0	catFR3	0	R1236J
1435.134	0.983	2502615	WORD_OFF	n/a	n/a	BED	n/a	10	0	13	[0, 0, 0]	n/a	0	0	0	n/a	n/a	0.0	0	0	0	catFR3	0	R1236J
1436.117	1.6	2503598	WORD	n/a	wordpools/wordpool.txt	CUCUMBER	Vegetables	11	0	13	[0, 0, 0]	n/a	0	0	0	n/a	n/a	0.0	0	0	0	catFR3	0	R1236J
1437.734	0.882	2505215	WORD_OFF	n/a	n/a	CUCUMBER	n/a	11	0	13	[0, 0, 0]	n/a	0	0	0	n/a	n/a	0.0	0	0	0	catFR3	0	R1236J
1438.616	1.6	2506097	WORD	n/a	wordpools/wordpool.txt	BROCCOLI	Vegetables	12	0	13	[0, 0, 0]	n/a	0	0	0	n/a	n/a	0.0	0	0	0	catFR3	0	R1236J
1440.234	0.001	2507715	WORD_OFF	n/a	n/a	BROCCOLI	n/a	12	0	13	[0, 0, 0]	n/a	0	0	0	n/a	n/a	0.0	0	0	0	catFR3	0	R1236J
1440.235	0.056	2507716	ENCODING_END	n/a	n/a	n/a	n/a	-999	0	13	[0, 0, 0]	n/a	0	0	0	n/a	n/a	0.0	0	0	0	catFR3	0	R1236J
1440.291	0.0	2507772	DISTRACT_START	n/a	n/a	n/a	n/a	-999	0	13	[0, 0, 0]	n/a	0	0	0	n/a	n/a	0.0	0	0	0	catFR3	0	R1236J
1440.291	0.01	2507772	START	n/a	n/a	n/a	n/a	-999	0	13	[-999, -999, -999]	n/a	0	0	0	n/a	n/a	0.0	0	0	0	catFR3	0	R1236J
1440.301	3.383	2507782	PROB	3.344	n/a	n/a	n/a	-999	0	13	[6, 2, 6]	14	0	0	0	n/a	n/a	0.0	0	0	0	catFR3	0	R1236J
1443.684	4.035	2511165	PROB	4.0	n/a	n/a	n/a	-999	0	13	[5, 5, 9]	19	0	0	0	n/a	n/a	0.0	0	0	0	catFR3	0	R1236J
1447.719	2.633	2515200	PROB	2.607	n/a	n/a	n/a	-999	0	13	[2, 3, 7]	12	0	0	0	n/a	n/a	0.0	0	0	0	catFR3	0	R1236J
1450.352	3.067	2517833	PROB	3.043	n/a	n/a	n/a	-999	0	13	[5, 8, 1]	14	0	0	0	n/a	n/a	0.0	0	0	0	catFR3	0	R1236J
1453.419	3.467	2520900	PROB	3.433	n/a	n/a	n/a	-999	0	13	[8, 5, 6]	19	0	0	0	n/a	n/a	0.0	0	0	0	catFR3	0	R1236J
1456.886	3.401	2524367	PROB	3.375	n/a	n/a	n/a	-999	0	13	[9, 2, 3]	14	0	0	0	n/a	n/a	0.0	0	0	0	catFR3	0	R1236J
1460.287	3.494	2527768	PROB	3.494	n/a	n/a	n/a	-999	0	13	[1, 9, 8]	18	0	0	0	n/a	n/a	0.0	0	0	0	catFR3	0	R1236J
1463.781	0.007	2531262	STOP	n/a	n/a	n/a	n/a	-999	0	13	[-999, -999, -999]	n/a	0	0	0	n/a	n/a	0.0	0	0	0	catFR3	0	R1236J
1463.788	0.665	2531269	DISTRACT_END	n/a	n/a	n/a	n/a	-999	0	13	[0, 0, 0]	n/a	0	0	0	n/a	n/a	0.0	0	0	0	catFR3	0	R1236J
1464.453	0.5	2531934	RETRIEVAL_ORIENT	n/a	n/a	n/a	n/a	-999	0	13	[0, 0, 0]	n/a	0	0	0	n/a	n/a	0.0	0	0	0	catFR3	0	R1236J
1464.972	1.505	2532453	REC_START	n/a	n/a	n/a	n/a	-999	0	13	[0, 0, 0]	n/a	0	0	0	n/a	n/a	0.0	0	0	0	catFR3	0	R1236J
1466.477	1.072	2533958	REC_WORD	1.505	n/a	NIGHTSTAND	Furniture	3	1	13	[0, 0, 0]	n/a	0	0	0	n/a	n/a	0.0	0	0	0	catFR3	0	R1236J
1467.549	0.813	2535030	REC_WORD	2.577	n/a	DRESSER	Furniture	9	1	13	[0, 0, 0]	n/a	0	0	0	n/a	n/a	0.0	0	0	0	catFR3	0	R1236J
1468.362	1.606	2535843	REC_WORD	3.39	n/a	RECLINER	Furniture	4	1	13	[0, 0, 0]	n/a	0	0	0	n/a	n/a	0.0	0	0	0	catFR3	0	R1236J
1469.968	5.484	2537449	REC_WORD	4.996	n/a	BED	Furniture	10	1	13	[0, 0, 0]	n/a	0	0	0	n/a	n/a	0.0	0	0	0	catFR3	0	R1236J
1475.452	1.134	2542933	REC_WORD	10.48	n/a	SPINACH	Vegetables	5	1	13	[0, 0, 0]	n/a	0	0	0	n/a	n/a	0.0	0	0	0	catFR3	0	R1236J
1476.586	17.671	2544067	REC_WORD	11.614	n/a	ONION	Vegetables	6	1	13	[0, 0, 0]	n/a	0	0	0	n/a	n/a	0.0	0	0	0	catFR3	0	R1236J
1494.257	0.726	2561738	REC_WORD	29.285	n/a	DRESSER	Furniture	9	1	13	[0, 0, 0]	n/a	0	0	0	n/a	n/a	0.0	0	0	0	catFR3	0	R1236J
1494.983	4.442	2562464	REC_END	n/a	n/a	n/a	n/a	-999	0	13	[0, 0, 0]	n/a	0	0	0	n/a	n/a	0.0	0	0	0	catFR3	0	R1236J
1499.425	0.5	2566906	TRIAL	n/a	n/a	n/a	n/a	-999	0	14	[0, 0, 0]	n/a	0	1	0	n/a	n/a	0.0	0	0	0	catFR3	0	R1236J
1499.925	10.0	2567406	COUNTDOWN_START	n/a	n/a	n/a	n/a	-999	0	14	[0, 0, 0]	n/a	0	1	0	n/a	n/a	0.0	0	0	0	catFR3	0	R1236J
1510.353	0.008	2577834	COUNTDOWN_END	n/a	n/a	n/a	n/a	-999	0	14	[0, 0, 0]	n/a	0	1	0	n/a	n/a	0.0	0	0	0	catFR3	0	R1236J
1510.361	1.6	2577842	ORIENT	n/a	n/a	n/a	n/a	-999	0	14	[0, 0, 0]	n/a	0	1	0	n/a	n/a	0.0	0	0	0	catFR3	0	R1236J
1511.977	2.034	2579458	ORIENT_OFF	n/a	n/a	n/a	n/a	-999	0	14	[0, 0, 0]	n/a	0	1	0	n/a	n/a	0.0	0	0	0	catFR3	0	R1236J
1514.011	1.6	2581492	WORD	n/a	wordpools/wordpool.txt	BIKE	Vehicles	1	1	14	[0, 0, 0]	n/a	0	1	0	n/a	n/a	0.0	0	0	0	catFR3	0	R1236J
1515.627	0.093	2583108	WORD_OFF	n/a	n/a	BIKE	n/a	1	0	14	[0, 0, 0]	n/a	0	1	0	n/a	n/a	0.0	0	0	0	catFR3	0	R1236J
1515.72	0.5	2583201	STIM_ON	n/a	n/a	n/a	n/a	1	0	14	[0, 0, 0]	n/a	1	1	500	LS4	LS5	500.0	100	50	300	catFR3	0	R1236J
1516.21	0.367	2583691	STIM_OFF	n/a	n/a	n/a	n/a	1	0	14	[0, 0, 0]	n/a	0	1	500	LS4	LS5	500.0	100	50	300	catFR3	0	R1236J
1516.577	1.6	2584058	WORD	n/a	wordpools/wordpool.txt	TRUCK	Vehicles	2	1	14	[0, 0, 0]	n/a	0	1	0	n/a	n/a	0.0	0	0	0	catFR3	0	R1236J
1518.195	0.917	2585676	WORD_OFF	n/a	n/a	TRUCK	n/a	2	0	14	[0, 0, 0]	n/a	0	1	0	n/a	n/a	0.0	0	0	0	catFR3	0	R1236J
1519.112	1.6	2586593	WORD	n/a	wordpools/wordpool.txt	LETTUCE	Vegetables	3	1	14	[0, 0, 0]	n/a	0	1	0	n/a	n/a	0.0	0	0	0	catFR3	0	R1236J
1520.728	0.093	2588209	WORD_OFF	n/a	n/a	LETTUCE	n/a	3	0	14	[0, 0, 0]	n/a	0	1	0	n/a	n/a	0.0	0	0	0	catFR3	0	R1236J
1520.821	0.5	2588302	STIM_ON	n/a	n/a	n/a	n/a	3	0	14	[0, 0, 0]	n/a	1	1	500	LS4	LS5	500.0	100	50	300	catFR3	0	R1236J
1521.311	0.25	2588792	STIM_OFF	n/a	n/a	n/a	n/a	3	0	14	[0, 0, 0]	n/a	0	1	500	LS4	LS5	500.0	100	50	300	catFR3	0	R1236J
1521.561	1.6	2589042	WORD	n/a	wordpools/wordpool.txt	CAULIFLOWER	Vegetables	4	1	14	[0, 0, 0]	n/a	0	1	0	n/a	n/a	0.0	0	0	0	catFR3	0	R1236J
1523.179	0.09	2590660	WORD_OFF	n/a	n/a	CAULIFLOWER	n/a	4	0	14	[0, 0, 0]	n/a	0	1	0	n/a	n/a	0.0	0	0	0	catFR3	0	R1236J
1523.269	0.5	2590750	STIM_ON	n/a	n/a	n/a	n/a	4	0	14	[0, 0, 0]	n/a	1	1	500	LS4	LS5	500.0	100	50	300	catFR3	0	R1236J
1523.759	0.386	2591240	STIM_OFF	n/a	n/a	n/a	n/a	4	0	14	[0, 0, 0]	n/a	0	1	500	LS4	LS5	500.0	100	50	300	catFR3	0	R1236J
1524.145	1.6	2591626	WORD	n/a	wordpools/wordpool.txt	COAT	Clothing	5	0	14	[0, 0, 0]	n/a	0	1	0	n/a	n/a	0.0	0	0	0	catFR3	0	R1236J
1525.762	0.883	2593243	WORD_OFF	n/a	n/a	COAT	n/a	5	0	14	[0, 0, 0]	n/a	0	1	0	n/a	n/a	0.0	0	0	0	catFR3	0	R1236J
1526.645	1.6	2594126	WORD	n/a	wordpools/wordpool.txt	PANTS	Clothing	6	0	14	[0, 0, 0]	n/a	0	1	0	n/a	n/a	0.0	0	0	0	catFR3	0	R1236J
1528.263	0.766	2595744	WORD_OFF	n/a	n/a	PANTS	n/a	6	0	14	[0, 0, 0]	n/a	0	1	0	n/a	n/a	0.0	0	0	0	catFR3	0	R1236J
1529.029	1.6	2596510	WORD	n/a	wordpools/wordpool.txt	JEEP	Vehicles	7	1	14	[0, 0, 0]	n/a	0	1	0	n/a	n/a	0.0	0	0	0	catFR3	0	R1236J
1530.645	0.098	2598126	WORD_OFF	n/a	n/a	JEEP	n/a	7	0	14	[0, 0, 0]	n/a	0	1	0	n/a	n/a	0.0	0	0	0	catFR3	0	R1236J
1530.743	0.5	2598224	STIM_ON	n/a	n/a	n/a	n/a	7	0	14	[0, 0, 0]	n/a	1	1	500	LS4	LS5	500.0	100	50	300	catFR3	0	R1236J
1531.233	0.313	2598714	STIM_OFF	n/a	n/a	n/a	n/a	7	0	14	[0, 0, 0]	n/a	0	1	500	LS4	LS5	500.0	100	50	300	catFR3	0	R1236J
1531.546	1.6	2599027	WORD	n/a	wordpools/wordpool.txt	TRAIN	Vehicles	8	0	14	[0, 0, 0]	n/a	0	1	0	n/a	n/a	0.0	0	0	0	catFR3	0	R1236J
1533.164	0.1	2600645	WORD_OFF	n/a	n/a	TRAIN	n/a	8	0	14	[0, 0, 0]	n/a	0	1	0	n/a	n/a	0.0	0	0	0	catFR3	0	R1236J
1533.264	0.5	2600745	STIM_ON	n/a	n/a	n/a	n/a	8	0	14	[0, 0, 0]	n/a	1	1	500	LS4	LS5	500.0	100	50	300	catFR3	0	R1236J
1533.754	0.226	2601235	STIM_OFF	n/a	n/a	n/a	n/a	8	0	14	[0, 0, 0]	n/a	0	1	500	LS4	LS5	500.0	100	50	300	catFR3	0	R1236J
1533.98	1.6	2601461	WORD	n/a	wordpools/wordpool.txt	CABBAGE	Vegetables	9	0	14	[0, 0, 0]	n/a	0	1	0	n/a	n/a	0.0	0	0	0	catFR3	0	R1236J
1535.596	0.104	2603077	WORD_OFF	n/a	n/a	CABBAGE	n/a	9	0	14	[0, 0, 0]	n/a	0	1	0	n/a	n/a	0.0	0	0	0	catFR3	0	R1236J
1535.7	0.5	2603181	STIM_ON	n/a	n/a	n/a	n/a	9	0	14	[0, 0, 0]	n/a	1	1	500	LS4	LS5	500.0	100	50	300	catFR3	0	R1236J
1536.19	0.339	2603671	STIM_OFF	n/a	n/a	n/a	n/a	9	0	14	[0, 0, 0]	n/a	0	1	500	LS4	LS5	500.0	100	50	300	catFR3	0	R1236J
1536.529	1.6	2604010	WORD	n/a	wordpools/wordpool.txt	PEAS	Vegetables	10	1	14	[0, 0, 0]	n/a	0	1	0	n/a	n/a	0.0	0	0	0	catFR3	0	R1236J
1538.147	0.817	2605628	WORD_OFF	n/a	n/a	PEAS	n/a	10	0	14	[0, 0, 0]	n/a	0	1	0	n/a	n/a	0.0	0	0	0	catFR3	0	R1236J
1538.964	1.6	2606445	WORD	n/a	wordpools/wordpool.txt	UNDERWEAR	Clothing	11	0	14	[0, 0, 0]	n/a	0	1	0	n/a	n/a	0.0	0	0	0	catFR3	0	R1236J
1540.58	0.933	2608061	WORD_OFF	n/a	n/a	UNDERWEAR	n/a	11	0	14	[0, 0, 0]	n/a	0	1	0	n/a	n/a	0.0	0	0	0	catFR3	0	R1236J
1541.513	1.6	2608994	WORD	n/a	wordpools/wordpool.txt	BLOUSE	Clothing	12	0	14	[0, 0, 0]	n/a	0	1	0	n/a	n/a	0.0	0	0	0	catFR3	0	R1236J
1543.132	0.0	2610613	ENCODING_END	n/a	n/a	n/a	n/a	-999	0	14	[0, 0, 0]	n/a	0	1	0	n/a	n/a	0.0	0	0	0	catFR3	0	R1236J
1543.132	0.055	2610613	WORD_OFF	n/a	n/a	BLOUSE	n/a	12	0	14	[0, 0, 0]	n/a	0	1	0	n/a	n/a	0.0	0	0	0	catFR3	0	R1236J
1543.187	0.0	2610668	DISTRACT_START	n/a	n/a	n/a	n/a	-999	0	14	[0, 0, 0]	n/a	0	1	0	n/a	n/a	0.0	0	0	0	catFR3	0	R1236J
1543.187	0.011	2610668	START	n/a	n/a	n/a	n/a	-999	0	14	[-999, -999, -999]	n/a	0	1	0	n/a	n/a	0.0	0	0	0	catFR3	0	R1236J
1543.198	0.038	2610679	PROB	4.059	n/a	n/a	n/a	-999	0	14	[2, 8, 6]	16	0	1	0	n/a	n/a	0.0	0	0	0	catFR3	0	R1236J
1543.236	0.5	2610717	STIM_ON	n/a	n/a	n/a	n/a	-999	0	14	[0, 0, 0]	n/a	1	1	500	LS4	LS5	500.0	100	50	300	catFR3	0	R1236J
1543.726	3.556	2611207	STIM_OFF	n/a	n/a	n/a	n/a	-999	0	14	[0, 0, 0]	n/a	0	1	500	LS4	LS5	500.0	100	50	300	catFR3	0	R1236J
1547.282	2.75	2614763	PROB	2.718	n/a	n/a	n/a	-999	0	14	[1, 4, 9]	14	0	1	0	n/a	n/a	0.0	0	0	0	catFR3	0	R1236J
1550.032	2.967	2617513	PROB	2.937	n/a	n/a	n/a	-999	0	14	[8, 1, 1]	10	0	1	0	n/a	n/a	0.0	0	0	0	catFR3	0	R1236J
1552.999	3.566	2620480	PROB	3.529	n/a	n/a	n/a	-999	0	14	[8, 1, 6]	15	0	1	0	n/a	n/a	0.0	0	0	0	catFR3	0	R1236J
1556.565	2.602	2624046	PROB	2.572	n/a	n/a	n/a	-999	0	14	[3, 8, 2]	13	0	1	0	n/a	n/a	0.0	0	0	0	catFR3	0	R1236J
1559.167	4.178	2626648	PROB	4.178	n/a	n/a	n/a	-999	0	14	[8, 7, 3]	18	0	1	0	n/a	n/a	0.0	0	0	0	catFR3	0	R1236J
1563.345	0.023	2630826	STOP	n/a	n/a	n/a	n/a	-999	0	14	[-999, -999, -999]	n/a	0	1	0	n/a	n/a	0.0	0	0	0	catFR3	0	R1236J
1563.368	0.566	2630849	DISTRACT_END	n/a	n/a	n/a	n/a	-999	0	14	[0, 0, 0]	n/a	0	1	0	n/a	n/a	0.0	0	0	0	catFR3	0	R1236J
1563.934	0.5	2631415	RETRIEVAL_ORIENT	n/a	n/a	n/a	n/a	-999	0	14	[0, 0, 0]	n/a	0	1	0	n/a	n/a	0.0	0	0	0	catFR3	0	R1236J
1564.451	0.827	2631932	REC_START	n/a	n/a	n/a	n/a	-999	0	14	[0, 0, 0]	n/a	0	1	0	n/a	n/a	0.0	0	0	0	catFR3	0	R1236J
1565.278	1.017	2632759	REC_WORD	0.827	n/a	JEEP	Vehicles	7	1	14	[0, 0, 0]	n/a	0	1	0	n/a	n/a	0.0	0	0	0	catFR3	0	R1236J
1566.295	2.613	2633776	REC_WORD	1.844	n/a	TRUCK	Vehicles	2	1	14	[0, 0, 0]	n/a	0	1	0	n/a	n/a	0.0	0	0	0	catFR3	0	R1236J
1568.908	9.481	2636389	REC_WORD	4.457	n/a	BIKE	Vehicles	1	1	14	[0, 0, 0]	n/a	0	1	0	n/a	n/a	0.0	0	0	0	catFR3	0	R1236J
1578.389	1.505	2645870	REC_WORD	13.938	n/a	CAULIFLOWER	Vegetables	4	1	14	[0, 0, 0]	n/a	0	1	0	n/a	n/a	0.0	0	0	0	catFR3	0	R1236J
1579.894	1.432	2647375	REC_WORD	15.443	n/a	PEAS	Vegetables	10	1	14	[0, 0, 0]	n/a	0	1	0	n/a	n/a	0.0	0	0	0	catFR3	0	R1236J
