onset	duration	sample	trial_type	response_time	stim_file	item_name	category	serialpos	recalled	list	test	answer	stimulation	stim_list	stim_duration	anode_label	cathode_label	amplitude	pulse_freq	n_pulses	pulse_width	experiment	session	subject
0.0	0.0	20270	INSTRUCT_START	n/a	n/a	n/a	n/a	-999	0	-999	[0, 0, 0]	n/a	0	0	0	n/a	n/a	0.0	0	0	0	catFR3	0	R1243T
0.0	10.977	20270	INSTRUCT_END	n/a	n/a	n/a	n/a	-999	0	-999	[0, 0, 0]	n/a	0	0	0	n/a	n/a	0.0	0	0	0	catFR3	0	R1243T
10.977	0.0	31247	SESS_START	n/a	n/a	n/a	n/a	-999	0	-999	[0, 0, 0]	n/a	0	0	0	n/a	n/a	0.0	0	0	0	catFR3	0	R1243T
10.977	11.5	31247	MIC_TEST	n/a	n/a	n/a	n/a	-999	0	-999	[0, 0, 0]	n/a	0	0	0	n/a	n/a	0.0	0	0	0	catFR3	0	R1243T
22.477	12.661	42746	PRACTICE_TRIAL	n/a	n/a	n/a	n/a	-999	0	-1	[0, 0, 0]	n/a	0	0	0	n/a	n/a	0.0	0	0	0	catFR3	0	R1243T
35.138	10.0	55406	COUNTDOWN_START	n/a	n/a	n/a	n/a	-999	0	-1	[0, 0, 0]	n/a	0	0	0	n/a	n/a	0.0	0	0	0	catFR3	0	R1243T
45.566	0.008	65833	COUNTDOWN_END	n/a	n/a	n/a	n/a	-999	0	-1	[0, 0, 0]	n/a	0	0	0	n/a	n/a	0.0	0	0	0	catFR3	0	R1243T
45.574	1.6	65841	PRACTICE_ORIENT	n/a	n/a	n/a	n/a	-999	0	-1	[0, 0, 0]	n/a	0	0	0	n/a	n/a	0.0	0	0	0	catFR3	0	R1243T
47.175	2.0	67442	PRACTICE_ORIENT_OFF	n/a	n/a	n/a	n/a	-999	0	-1	[0, 0, 0]	n/a	0	0	0	n/a	n/a	0.0	0	0	0	catFR3	0	R1243T
49.175	1.6	69442	PRACTICE_WORD	n/a	n/a	ATTIC	n/a	1	0	-1	[0, 0, 0]	n/a	0	0	0	n/a	n/a	0.0	0	0	0	catFR3	0	R1243T
50.792	0.8	71059	PRACTICE_WORD_OFF	n/a	n/a	ATTIC	n/a	-999	0	-1	[0, 0, 0]	n/a	0	0	0	n/a	n/a	0.0	0	0	0	catFR3	0	R1243T
51.592	1.6	71859	PRACTICE_WORD	n/a	n/a	WATCH	n/a	2	0	-1	[0, 0, 0]	n/a	0	0	0	n/a	n/a	0.0	0	0	0	catFR3	0	R1243T
53.21	1.0	73477	PRACTICE_WORD_OFF	n/a	n/a	WATCH	n/a	-999	0	-1	[0, 0, 0]	n/a	0	0	0	n/a	n/a	0.0	0	0	0	catFR3	0	R1243T
54.21	1.6	74477	PRACTICE_WORD	n/a	n/a	TONGUE	n/a	3	0	-1	[0, 0, 0]	n/a	0	0	0	n/a	n/a	0.0	0	0	0	catFR3	0	R1243T
55.827	0.983	76094	PRACTICE_WORD_OFF	n/a	n/a	TONGUE	n/a	-999	0	-1	[0, 0, 0]	n/a	0	0	0	n/a	n/a	0.0	0	0	0	catFR3	0	R1243T
56.81	1.6	77077	PRACTICE_WORD	n/a	n/a	RING	n/a	4	0	-1	[0, 0, 0]	n/a	0	0	0	n/a	n/a	0.0	0	0	0	catFR3	0	R1243T
58.427	0.917	78694	PRACTICE_WORD_OFF	n/a	n/a	RING	n/a	-999	0	-1	[0, 0, 0]	n/a	0	0	0	n/a	n/a	0.0	0	0	0	catFR3	0	R1243T
59.344	1.6	79611	PRACTICE_WORD	n/a	n/a	WAGON	n/a	5	0	-1	[0, 0, 0]	n/a	0	0	0	n/a	n/a	0.0	0	0	0	catFR3	0	R1243T
60.961	1.017	81227	PRACTICE_WORD_OFF	n/a	n/a	WAGON	n/a	-999	0	-1	[0, 0, 0]	n/a	0	0	0	n/a	n/a	0.0	0	0	0	catFR3	0	R1243T
61.978	1.6	82244	PRACTICE_WORD	n/a	n/a	FLOOD	n/a	6	0	-1	[0, 0, 0]	n/a	0	0	0	n/a	n/a	0.0	0	0	0	catFR3	0	R1243T
63.594	0.884	83860	PRACTICE_WORD_OFF	n/a	n/a	FLOOD	n/a	-999	0	-1	[0, 0, 0]	n/a	0	0	0	n/a	n/a	0.0	0	0	0	catFR3	0	R1243T
64.478	1.6	84744	PRACTICE_WORD	n/a	n/a	BEAM	n/a	7	0	-1	[0, 0, 0]	n/a	0	0	0	n/a	n/a	0.0	0	0	0	catFR3	0	R1243T
66.095	0.817	86361	PRACTICE_WORD_OFF	n/a	n/a	BEAM	n/a	-999	0	-1	[0, 0, 0]	n/a	0	0	0	n/a	n/a	0.0	0	0	0	catFR3	0	R1243T
66.912	1.6	87178	PRACTICE_WORD	n/a	n/a	RHINO	n/a	8	0	-1	[0, 0, 0]	n/a	0	0	0	n/a	n/a	0.0	0	0	0	catFR3	0	R1243T
68.529	0.817	88795	PRACTICE_WORD_OFF	n/a	n/a	RHINO	n/a	-999	0	-1	[0, 0, 0]	n/a	0	0	0	n/a	n/a	0.0	0	0	0	catFR3	0	R1243T
69.346	1.6	89612	PRACTICE_WORD	n/a	n/a	CHEST	n/a	9	0	-1	[0, 0, 0]	n/a	0	0	0	n/a	n/a	0.0	0	0	0	catFR3	0	R1243T
70.963	0.883	91229	PRACTICE_WORD_OFF	n/a	n/a	CHEST	n/a	-999	0	-1	[0, 0, 0]	n/a	0	0	0	n/a	n/a	0.0	0	0	0	catFR3	0	R1243T
71.846	1.6	92112	PRACTICE_WORD	n/a	n/a	CAMEL	n/a	10	0	-1	[0, 0, 0]	n/a	0	0	0	n/a	n/a	0.0	0	0	0	catFR3	0	R1243T
73.463	0.784	93729	PRACTICE_WORD_OFF	n/a	n/a	CAMEL	n/a	-999	0	-1	[0, 0, 0]	n/a	0	0	0	n/a	n/a	0.0	0	0	0	catFR3	0	R1243T
74.247	1.6	94513	PRACTICE_WORD	n/a	n/a	IRON	n/a	11	0	-1	[0, 0, 0]	n/a	0	0	0	n/a	n/a	0.0	0	0	0	catFR3	0	R1243T
75.864	0.85	96130	PRACTICE_WORD_OFF	n/a	n/a	IRON	n/a	-999	0	-1	[0, 0, 0]	n/a	0	0	0	n/a	n/a	0.0	0	0	0	catFR3	0	R1243T
76.714	1.6	96980	PRACTICE_WORD	n/a	n/a	COTTON	n/a	12	0	-1	[0, 0, 0]	n/a	0	0	0	n/a	n/a	0.0	0	0	0	catFR3	0	R1243T
78.331	0.0	98596	ENCODING_END	n/a	n/a	n/a	n/a	-999	0	-1	[0, 0, 0]	n/a	0	0	0	n/a	n/a	0.0	0	0	0	catFR3	0	R1243T
78.331	0.0	98596	PRACTICE_WORD_OFF	n/a	n/a	COTTON	n/a	-999	0	-1	[0, 0, 0]	n/a	0	0	0	n/a	n/a	0.0	0	0	0	catFR3	0	R1243T
78.331	0.0	98596	DISTRACT_START	n/a	n/a	n/a	n/a	-999	0	-1	[0, 0, 0]	n/a	0	0	0	n/a	n/a	0.0	0	0	0	catFR3	0	R1243T
78.331	0.016	98596	START	n/a	n/a	n/a	n/a	-999	0	-1	[-999, -999, -999]	n/a	0	0	0	n/a	n/a	0.0	0	0	0	catFR3	0	R1243T
78.347	4.435	98612	PROB	4.395	n/a	n/a	n/a	-999	0	-1	[5, 5, 6]	16	0	0	0	n/a	n/a	0.0	0	0	0	catFR3	0	R1243T
82.782	2.799	103047	PROB	2.761	n/a	n/a	n/a	-999	0	-1	[1, 1, 3]	5	0	0	0	n/a	n/a	0.0	0	0	0	catFR3	0	R1243T
85.581	3.067	105846	PROB	3.032	n/a	n/a	n/a	-999	0	-1	[6, 3, 5]	14	0	0	0	n/a	n/a	0.0	0	0	0	catFR3	0	R1243T
88.648	3.635	108913	PROB	3.599	n/a	n/a	n/a	-999	0	-1	[6, 2, 9]	17	0	0	0	n/a	n/a	0.0	0	0	0	catFR3	0	R1243T
92.283	4.818	112548	PROB	4.789	n/a	n/a	n/a	-999	0	-1	[8, 5, 9]	22	0	0	0	n/a	n/a	0.0	0	0	0	catFR3	0	R1243T
97.101	5.641	117365	PROB	5.641	n/a	n/a	n/a	-999	0	-1	[9, 7, 9]	25	0	0	0	n/a	n/a	0.0	0	0	0	catFR3	0	R1243T
102.742	0.01	123006	STOP	n/a	n/a	n/a	n/a	-999	0	-1	[-999, -999, -999]	n/a	0	0	0	n/a	n/a	0.0	0	0	0	catFR3	0	R1243T
102.752	0.667	123016	DISTRACT_END	n/a	n/a	n/a	n/a	-999	0	-1	[0, 0, 0]	n/a	0	0	0	n/a	n/a	0.0	0	0	0	catFR3	0	R1243T
103.419	0.5	123683	RETRIEVAL_ORIENT	n/a	n/a	n/a	n/a	-999	0	-1	[0, 0, 0]	n/a	0	0	0	n/a	n/a	0.0	0	0	0	catFR3	0	R1243T
103.936	30.011	124200	PRACTICE_REC_START	n/a	n/a	n/a	n/a	-999	0	-1	[0, 0, 0]	n/a	0	0	0	n/a	n/a	0.0	0	0	0	catFR3	0	R1243T
133.947	13.48	154209	PRACTICE_REC_END	n/a	n/a	n/a	n/a	-999	0	-1	[0, 0, 0]	n/a	0	0	0	n/a	n/a	0.0	0	0	0	catFR3	0	R1243T
147.427	0.5	167688	TRIAL	n/a	n/a	n/a	n/a	-999	0	1	[0, 0, 0]	n/a	0	0	0	n/a	n/a	0.0	0	0	0	catFR3	0	R1243T
147.927	10.0	168188	COUNTDOWN_START	n/a	n/a	n/a	n/a	-999	0	1	[0, 0, 0]	n/a	0	0	0	n/a	n/a	0.0	0	0	0	catFR3	0	R1243T
158.355	0.007	178615	COUNTDOWN_END	n/a	n/a	n/a	n/a	-999	0	1	[0, 0, 0]	n/a	0	0	0	n/a	n/a	0.0	0	0	0	catFR3	0	R1243T
158.362	1.6	178622	ORIENT	n/a	n/a	n/a	n/a	-999	0	1	[0, 0, 0]	n/a	0	0	0	n/a	n/a	0.0	0	0	0	catFR3	0	R1243T
159.979	2.167	180239	ORIENT_OFF	n/a	n/a	n/a	n/a	-999	0	1	[0, 0, 0]	n/a	0	0	0	n/a	n/a	0.0	0	0	0	catFR3	0	R1243T
162.146	1.6	182406	WORD	n/a	wordpools/wordpool.txt	LEMON	Fruit	1	1	1	[0, 0, 0]	n/a	0	0	0	n/a	n/a	0.0	0	0	0	catFR3	0	R1243T
163.763	0.782	184023	WORD_OFF	n/a	n/a	LEMON	n/a	1	0	1	[0, 0, 0]	n/a	0	0	0	n/a	n/a	0.0	0	0	0	catFR3	0	R1243T
164.545	1.6	184805	WORD	n/a	wordpools/wordpool.txt	PEAR	Fruit	2	1	1	[0, 0, 0]	n/a	0	0	0	n/a	n/a	0.0	0	0	0	catFR3	0	R1243T
166.146	0.801	186406	WORD_OFF	n/a	n/a	PEAR	n/a	2	0	1	[0, 0, 0]	n/a	0	0	0	n/a	n/a	0.0	0	0	0	catFR3	0	R1243T
166.947	1.6	187207	WORD	n/a	wordpools/wordpool.txt	HORSE	FarmAnimals	3	1	1	[0, 0, 0]	n/a	0	0	0	n/a	n/a	0.0	0	0	0	catFR3	0	R1243T
168.563	0.801	188823	WORD_OFF	n/a	n/a	HORSE	n/a	3	0	1	[0, 0, 0]	n/a	0	0	0	n/a	n/a	0.0	0	0	0	catFR3	0	R1243T
169.364	1.6	189624	WORD	n/a	wordpools/wordpool.txt	PIG	FarmAnimals	4	0	1	[0, 0, 0]	n/a	0	0	0	n/a	n/a	0.0	0	0	0	catFR3	0	R1243T
170.981	0.95	191241	WORD_OFF	n/a	n/a	PIG	n/a	4	0	1	[0, 0, 0]	n/a	0	0	0	n/a	n/a	0.0	0	0	0	catFR3	0	R1243T
171.931	1.6	192191	WORD	n/a	wordpools/wordpool.txt	SOFA	Furniture	5	0	1	[0, 0, 0]	n/a	0	0	0	n/a	n/a	0.0	0	0	0	catFR3	0	R1243T
173.547	0.785	193807	WORD_OFF	n/a	n/a	SOFA	n/a	5	0	1	[0, 0, 0]	n/a	0	0	0	n/a	n/a	0.0	0	0	0	catFR3	0	R1243T
174.332	1.6	194592	WORD	n/a	wordpools/wordpool.txt	COUCH	Furniture	6	0	1	[0, 0, 0]	n/a	0	0	0	n/a	n/a	0.0	0	0	0	catFR3	0	R1243T
175.948	1.001	196207	WORD_OFF	n/a	n/a	COUCH	n/a	6	0	1	[0, 0, 0]	n/a	0	0	0	n/a	n/a	0.0	0	0	0	catFR3	0	R1243T
176.949	1.6	197208	WORD	n/a	wordpools/wordpool.txt	TURKEY	FarmAnimals	7	0	1	[0, 0, 0]	n/a	0	0	0	n/a	n/a	0.0	0	0	0	catFR3	0	R1243T
178.565	0.867	198824	WORD_OFF	n/a	n/a	TURKEY	n/a	7	0	1	[0, 0, 0]	n/a	0	0	0	n/a	n/a	0.0	0	0	0	catFR3	0	R1243T
179.432	1.6	199691	WORD	n/a	wordpools/wordpool.txt	BULL	FarmAnimals	8	1	1	[0, 0, 0]	n/a	0	0	0	n/a	n/a	0.0	0	0	0	catFR3	0	R1243T
181.049	0.867	201308	WORD_OFF	n/a	n/a	BULL	n/a	8	0	1	[0, 0, 0]	n/a	0	0	0	n/a	n/a	0.0	0	0	0	catFR3	0	R1243T
181.916	1.6	202175	WORD	n/a	wordpools/wordpool.txt	LIME	Fruit	9	1	1	[0, 0, 0]	n/a	0	0	0	n/a	n/a	0.0	0	0	0	catFR3	0	R1243T
183.533	0.867	203792	WORD_OFF	n/a	n/a	LIME	n/a	9	0	1	[0, 0, 0]	n/a	0	0	0	n/a	n/a	0.0	0	0	0	catFR3	0	R1243T
184.4	1.6	204659	WORD	n/a	wordpools/wordpool.txt	CHERRY	Fruit	10	1	1	[0, 0, 0]	n/a	0	0	0	n/a	n/a	0.0	0	0	0	catFR3	0	R1243T
186.017	0.917	206276	WORD_OFF	n/a	n/a	CHERRY	n/a	10	0	1	[0, 0, 0]	n/a	0	0	0	n/a	n/a	0.0	0	0	0	catFR3	0	R1243T
186.934	1.6	207193	WORD	n/a	wordpools/wordpool.txt	TABLE	Furniture	11	0	1	[0, 0, 0]	n/a	0	0	0	n/a	n/a	0.0	0	0	0	catFR3	0	R1243T
188.55	0.868	208809	WORD_OFF	n/a	n/a	TABLE	n/a	11	0	1	[0, 0, 0]	n/a	0	0	0	n/a	n/a	0.0	0	0	0	catFR3	0	R1243T
189.418	1.6	209677	WORD	n/a	wordpools/wordpool.txt	RECLINER	Furniture	12	0	1	[0, 0, 0]	n/a	0	0	0	n/a	n/a	0.0	0	0	0	catFR3	0	R1243T
191.035	0.0	211293	ENCODING_END	n/a	n/a	n/a	n/a	-999	0	1	[0, 0, 0]	n/a	0	0	0	n/a	n/a	0.0	0	0	0	catFR3	0	R1243T
191.035	0.056	211293	WORD_OFF	n/a	n/a	RECLINER	n/a	12	0	1	[0, 0, 0]	n/a	0	0	0	n/a	n/a	0.0	0	0	0	catFR3	0	R1243T
191.091	0.0	211349	DISTRACT_START	n/a	n/a	n/a	n/a	-999	0	1	[0, 0, 0]	n/a	0	0	0	n/a	n/a	0.0	0	0	0	catFR3	0	R1243T
191.091	0.01	211349	START	n/a	n/a	n/a	n/a	-999	0	1	[-999, -999, -999]	n/a	0	0	0	n/a	n/a	0.0	0	0	0	catFR3	0	R1243T
191.101	4.151	211359	PROB	4.121	n/a	n/a	n/a	-999	0	1	[1, 6, 6]	13	0	0	0	n/a	n/a	0.0	0	0	0	catFR3	0	R1243T
195.252	4.4	215510	PROB	4.377	n/a	n/a	n/a	-999	0	1	[6, 9, 4]	19	0	0	0	n/a	n/a	0.0	0	0	0	catFR3	0	R1243T
199.652	3.068	219910	PROB	3.042	n/a	n/a	n/a	-999	0	1	[1, 9, 3]	13	0	0	0	n/a	n/a	0.0	0	0	0	catFR3	0	R1243T
202.72	3.966	222978	PROB	3.935	n/a	n/a	n/a	-999	0	1	[1, 6, 5]	11	0	0	0	n/a	n/a	0.0	0	0	0	catFR3	0	R1243T
206.686	3.552	226944	PROB	3.53	n/a	n/a	n/a	-999	0	1	[1, 7, 1]	9	0	0	0	n/a	n/a	0.0	0	0	0	catFR3	0	R1243T
210.238	2.601	230495	PROB	2.601	n/a	n/a	n/a	-999	0	1	[3, 3, 1]	7	0	0	0	n/a	n/a	0.0	0	0	0	catFR3	0	R1243T
212.839	0.016	233096	STOP	n/a	n/a	n/a	n/a	-999	0	1	[-999, -999, -999]	n/a	0	0	0	n/a	n/a	0.0	0	0	0	catFR3	0	R1243T
212.855	0.617	233112	DISTRACT_END	n/a	n/a	n/a	n/a	-999	0	1	[0, 0, 0]	n/a	0	0	0	n/a	n/a	0.0	0	0	0	catFR3	0	R1243T
213.472	0.5	233729	RETRIEVAL_ORIENT	n/a	n/a	n/a	n/a	-999	0	1	[0, 0, 0]	n/a	0	0	0	n/a	n/a	0.0	0	0	0	catFR3	0	R1243T
213.989	1.137	234246	REC_START	n/a	n/a	n/a	n/a	-999	0	1	[0, 0, 0]	n/a	0	0	0	n/a	n/a	0.0	0	0	0	catFR3	0	R1243T
215.126	1.299	235383	REC_WORD_VV	1.137	n/a	<>	n/a	-999	0	1	[0, 0, 0]	n/a	0	0	0	n/a	n/a	0.0	0	0	0	catFR3	0	R1243T
216.425	0.388	236682	REC_WORD	2.436	n/a	LEMON	Fruit	1	1	1	[0, 0, 0]	n/a	0	0	0	n/a	n/a	0.0	0	0	0	catFR3	0	R1243T
216.813	1.355	237070	REC_WORD	2.824	n/a	LIME	Fruit	9	1	1	[0, 0, 0]	n/a	0	0	0	n/a	n/a	0.0	0	0	0	catFR3	0	R1243T
218.168	3.136	238425	REC_WORD	4.179	n/a	HORSE	FarmAnimals	3	1	1	[0, 0, 0]	n/a	0	0	0	n/a	n/a	0.0	0	0	0	catFR3	0	R1243T
221.304	13.113	241561	REC_WORD	7.315	n/a	BULL	FarmAnimals	8	1	1	[0, 0, 0]	n/a	0	0	0	n/a	n/a	0.0	0	0	0	catFR3	0	R1243T
234.417	7.935	254673	REC_WORD	20.428	n/a	CHERRY	Fruit	10	1	1	[0, 0, 0]	n/a	0	0	0	n/a	n/a	0.0	0	0	0	catFR3	0	R1243T
242.352	1.651	262607	REC_WORD	28.363	n/a	PEAR	Fruit	2	1	1	[0, 0, 0]	n/a	0	0	0	n/a	n/a	0.0	0	0	0	catFR3	0	R1243T
244.003	5.608	264258	REC_END	n/a	n/a	n/a	n/a	-999	0	1	[0, 0, 0]	n/a	0	0	0	n/a	n/a	0.0	0	0	0	catFR3	0	R1243T
249.611	0.5	269866	TRIAL	n/a	n/a	n/a	n/a	-999	0	2	[0, 0, 0]	n/a	0	0	0	n/a	n/a	0.0	0	0	0	catFR3	0	R1243T
250.111	10.0	270366	COUNTDOWN_START	n/a	n/a	n/a	n/a	-999	0	2	[0, 0, 0]	n/a	0	0	0	n/a	n/a	0.0	0	0	0	catFR3	0	R1243T
260.539	0.007	280793	COUNTDOWN_END	n/a	n/a	n/a	n/a	-999	0	2	[0, 0, 0]	n/a	0	0	0	n/a	n/a	0.0	0	0	0	catFR3	0	R1243T
260.546	1.6	280800	ORIENT	n/a	n/a	n/a	n/a	-999	0	2	[0, 0, 0]	n/a	0	0	0	n/a	n/a	0.0	0	0	0	catFR3	0	R1243T
262.164	1.884	282418	ORIENT_OFF	n/a	n/a	n/a	n/a	-999	0	2	[0, 0, 0]	n/a	0	0	0	n/a	n/a	0.0	0	0	0	catFR3	0	R1243T
264.048	1.6	284302	WORD	n/a	wordpools/wordpool.txt	HEADPHONES	Electronics	1	0	2	[0, 0, 0]	n/a	0	0	0	n/a	n/a	0.0	0	0	0	catFR3	0	R1243T
265.664	0.818	285918	WORD_OFF	n/a	n/a	HEADPHONES	n/a	1	0	2	[0, 0, 0]	n/a	0	0	0	n/a	n/a	0.0	0	0	0	catFR3	0	R1243T
266.482	1.6	286736	WORD	n/a	wordpools/wordpool.txt	PHONE	Electronics	2	0	2	[0, 0, 0]	n/a	0	0	0	n/a	n/a	0.0	0	0	0	catFR3	0	R1243T
268.099	0.966	288353	WORD_OFF	n/a	n/a	PHONE	n/a	2	0	2	[0, 0, 0]	n/a	0	0	0	n/a	n/a	0.0	0	0	0	catFR3	0	R1243T
269.065	1.6	289319	WORD	n/a	wordpools/wordpool.txt	BEE	Insects	3	0	2	[0, 0, 0]	n/a	0	0	0	n/a	n/a	0.0	0	0	0	catFR3	0	R1243T
270.681	0.984	290935	WORD_OFF	n/a	n/a	BEE	n/a	3	0	2	[0, 0, 0]	n/a	0	0	0	n/a	n/a	0.0	0	0	0	catFR3	0	R1243T
271.665	1.6	291919	WORD	n/a	wordpools/wordpool.txt	MOSQUITO	Insects	4	0	2	[0, 0, 0]	n/a	0	0	0	n/a	n/a	0.0	0	0	0	catFR3	0	R1243T
273.266	0.867	293519	WORD_OFF	n/a	n/a	MOSQUITO	n/a	4	0	2	[0, 0, 0]	n/a	0	0	0	n/a	n/a	0.0	0	0	0	catFR3	0	R1243T
274.133	1.6	294386	WORD	n/a	wordpools/wordpool.txt	DOOR	Building	5	1	2	[0, 0, 0]	n/a	0	0	0	n/a	n/a	0.0	0	0	0	catFR3	0	R1243T
275.75	0.816	296003	WORD_OFF	n/a	n/a	DOOR	n/a	5	0	2	[0, 0, 0]	n/a	0	0	0	n/a	n/a	0.0	0	0	0	catFR3	0	R1243T
276.566	1.6	296819	WORD	n/a	wordpools/wordpool.txt	BATHROOM	Building	6	0	2	[0, 0, 0]	n/a	0	0	0	n/a	n/a	0.0	0	0	0	catFR3	0	R1243T
278.184	0.767	298437	WORD_OFF	n/a	n/a	BATHROOM	n/a	6	0	2	[0, 0, 0]	n/a	0	0	0	n/a	n/a	0.0	0	0	0	catFR3	0	R1243T
278.951	1.6	299204	WORD	n/a	wordpools/wordpool.txt	PRINTER	Electronics	7	0	2	[0, 0, 0]	n/a	0	0	0	n/a	n/a	0.0	0	0	0	catFR3	0	R1243T
280.567	0.967	300820	WORD_OFF	n/a	n/a	PRINTER	n/a	7	0	2	[0, 0, 0]	n/a	0	0	0	n/a	n/a	0.0	0	0	0	catFR3	0	R1243T
281.534	1.6	301787	WORD	n/a	wordpools/wordpool.txt	SPEAKER	Electronics	8	0	2	[0, 0, 0]	n/a	0	0	0	n/a	n/a	0.0	0	0	0	catFR3	0	R1243T
283.151	0.784	303404	WORD_OFF	n/a	n/a	SPEAKER	n/a	8	0	2	[0, 0, 0]	n/a	0	0	0	n/a	n/a	0.0	0	0	0	catFR3	0	R1243T
283.935	1.6	304188	WORD	n/a	wordpools/wordpool.txt	FLY	Insects	9	1	2	[0, 0, 0]	n/a	0	0	0	n/a	n/a	0.0	0	0	0	catFR3	0	R1243T
285.551	0.868	305804	WORD_OFF	n/a	n/a	FLY	n/a	9	0	2	[0, 0, 0]	n/a	0	0	0	n/a	n/a	0.0	0	0	0	catFR3	0	R1243T
286.419	1.6	306672	WORD	n/a	wordpools/wordpool.txt	MOTH	Insects	10	1	2	[0, 0, 0]	n/a	0	0	0	n/a	n/a	0.0	0	0	0	catFR3	0	R1243T
288.036	0.983	308289	WORD_OFF	n/a	n/a	MOTH	n/a	10	0	2	[0, 0, 0]	n/a	0	0	0	n/a	n/a	0.0	0	0	0	catFR3	0	R1243T
289.019	1.6	309271	WORD	n/a	wordpools/wordpool.txt	FLOOR	Building	11	1	2	[0, 0, 0]	n/a	0	0	0	n/a	n/a	0.0	0	0	0	catFR3	0	R1243T
290.635	0.885	310887	WORD_OFF	n/a	n/a	FLOOR	n/a	11	0	2	[0, 0, 0]	n/a	0	0	0	n/a	n/a	0.0	0	0	0	catFR3	0	R1243T
291.52	1.6	311772	WORD	n/a	wordpools/wordpool.txt	WINDOW	Building	12	0	2	[0, 0, 0]	n/a	0	0	0	n/a	n/a	0.0	0	0	0	catFR3	0	R1243T
293.136	0.001	313388	WORD_OFF	n/a	n/a	WINDOW	n/a	12	0	2	[0, 0, 0]	n/a	0	0	0	n/a	n/a	0.0	0	0	0	catFR3	0	R1243T
293.137	0.057	313389	ENCODING_END	n/a	n/a	n/a	n/a	-999	0	2	[0, 0, 0]	n/a	0	0	0	n/a	n/a	0.0	0	0	0	catFR3	0	R1243T
293.194	0.0	313446	DISTRACT_START	n/a	n/a	n/a	n/a	-999	0	2	[0, 0, 0]	n/a	0	0	0	n/a	n/a	0.0	0	0	0	catFR3	0	R1243T
293.194	0.009	313446	START	n/a	n/a	n/a	n/a	-999	0	2	[-999, -999, -999]	n/a	0	0	0	n/a	n/a	0.0	0	0	0	catFR3	0	R1243T
293.203	4.201	313455	PROB	4.171	n/a	n/a	n/a	-999	0	2	[2, 7, 6]	15	0	0	0	n/a	n/a	0.0	0	0	0	catFR3	0	R1243T
297.404	3.166	317656	PROB	3.13	n/a	n/a	n/a	-999	0	2	[7, 3, 4]	14	0	0	0	n/a	n/a	0.0	0	0	0	catFR3	0	R1243T
300.57	3.385	320822	PROB	3.349	n/a	n/a	n/a	-999	0	2	[2, 8, 5]	15	0	0	0	n/a	n/a	0.0	0	0	0	catFR3	0	R1243T
303.955	4.6	324207	PROB	4.563	n/a	n/a	n/a	-999	0	2	[9, 8, 2]	19	0	0	0	n/a	n/a	0.0	0	0	0	catFR3	0	R1243T
308.555	3.468	328806	PROB	3.436	n/a	n/a	n/a	-999	0	2	[4, 3, 5]	11	0	0	0	n/a	n/a	0.0	0	0	0	catFR3	0	R1243T
312.023	9.305	332274	PROB	9.305	n/a	n/a	n/a	-999	0	2	[7, 6, 5]	18	0	0	0	n/a	n/a	0.0	0	0	0	catFR3	0	R1243T
321.328	0.014	341578	STOP	n/a	n/a	n/a	n/a	-999	0	2	[-999, -999, -999]	n/a	0	0	0	n/a	n/a	0.0	0	0	0	catFR3	0	R1243T
321.342	0.599	341592	DISTRACT_END	n/a	n/a	n/a	n/a	-999	0	2	[0, 0, 0]	n/a	0	0	0	n/a	n/a	0.0	0	0	0	catFR3	0	R1243T
321.941	0.5	342191	RETRIEVAL_ORIENT	n/a	n/a	n/a	n/a	-999	0	2	[0, 0, 0]	n/a	0	0	0	n/a	n/a	0.0	0	0	0	catFR3	0	R1243T
322.459	3.793	342709	REC_START	n/a	n/a	n/a	n/a	-999	0	2	[0, 0, 0]	n/a	0	0	0	n/a	n/a	0.0	0	0	0	catFR3	0	R1243T
326.252	1.047	346502	REC_WORD	3.793	n/a	DOOR	Building	5	1	2	[0, 0, 0]	n/a	0	0	0	n/a	n/a	0.0	0	0	0	catFR3	0	R1243T
327.299	4.022	347549	REC_WORD	4.84	n/a	FLOOR	Building	11	1	2	[0, 0, 0]	n/a	0	0	0	n/a	n/a	0.0	0	0	0	catFR3	0	R1243T
331.321	2.284	351571	REC_WORD	8.862	n/a	FLY	Insects	9	1	2	[0, 0, 0]	n/a	0	0	0	n/a	n/a	0.0	0	0	0	catFR3	0	R1243T
333.605	18.865	353855	REC_WORD	11.146	n/a	MOTH	Insects	10	1	2	[0, 0, 0]	n/a	0	0	0	n/a	n/a	0.0	0	0	0	catFR3	0	R1243T
352.47	5.578	372719	REC_END	n/a	n/a	n/a	n/a	-999	0	2	[0, 0, 0]	n/a	0	0	0	n/a	n/a	0.0	0	0	0	catFR3	0	R1243T
358.048	0.5	378296	TRIAL	n/a	n/a	n/a	n/a	-999	0	3	[0, 0, 0]	n/a	0	0	0	n/a	n/a	0.0	0	0	0	catFR3	0	R1243T
358.548	10.0	378796	COUNTDOWN_START	n/a	n/a	n/a	n/a	-999	0	3	[0, 0, 0]	n/a	0	0	0	n/a	n/a	0.0	0	0	0	catFR3	0	R1243T
368.976	0.008	389224	COUNTDOWN_END	n/a	n/a	n/a	n/a	-999	0	3	[0, 0, 0]	n/a	0	0	0	n/a	n/a	0.0	0	0	0	catFR3	0	R1243T
368.984	1.6	389232	ORIENT	n/a	n/a	n/a	n/a	-999	0	3	[0, 0, 0]	n/a	0	0	0	n/a	n/a	0.0	0	0	0	catFR3	0	R1243T
370.6	2.033	390847	ORIENT_OFF	n/a	n/a	n/a	n/a	-999	0	3	[0, 0, 0]	n/a	0	0	0	n/a	n/a	0.0	0	0	0	catFR3	0	R1243T
372.633	1.6	392880	WORD	n/a	wordpools/wordpool.txt	SNOW	Weather	1	0	3	[0, 0, 0]	n/a	0	0	0	n/a	n/a	0.0	0	0	0	catFR3	0	R1243T
374.234	0.834	394481	WORD_OFF	n/a	n/a	SNOW	n/a	1	0	3	[0, 0, 0]	n/a	0	0	0	n/a	n/a	0.0	0	0	0	catFR3	0	R1243T
375.068	1.6	395315	WORD	n/a	wordpools/wordpool.txt	THUNDER	Weather	2	0	3	[0, 0, 0]	n/a	0	0	0	n/a	n/a	0.0	0	0	0	catFR3	0	R1243T
376.684	0.917	396931	WORD_OFF	n/a	n/a	THUNDER	n/a	2	0	3	[0, 0, 0]	n/a	0	0	0	n/a	n/a	0.0	0	0	0	catFR3	0	R1243T
377.601	1.6	397848	WORD	n/a	wordpools/wordpool.txt	MOUSSE	Desserts	3	0	3	[0, 0, 0]	n/a	0	0	0	n/a	n/a	0.0	0	0	0	catFR3	0	R1243T
379.219	0.85	399466	WORD_OFF	n/a	n/a	MOUSSE	n/a	3	0	3	[0, 0, 0]	n/a	0	0	0	n/a	n/a	0.0	0	0	0	catFR3	0	R1243T
380.069	1.6	400316	WORD	n/a	wordpools/wordpool.txt	CHEESECAKE	Desserts	4	1	3	[0, 0, 0]	n/a	0	0	0	n/a	n/a	0.0	0	0	0	catFR3	0	R1243T
381.685	0.917	401932	WORD_OFF	n/a	n/a	CHEESECAKE	n/a	4	0	3	[0, 0, 0]	n/a	0	0	0	n/a	n/a	0.0	0	0	0	catFR3	0	R1243T
382.602	1.6	402849	WORD	n/a	wordpools/wordpool.txt	RADIO	Electronics	5	0	3	[0, 0, 0]	n/a	0	0	0	n/a	n/a	0.0	0	0	0	catFR3	0	R1243T
384.22	0.983	404467	WORD_OFF	n/a	n/a	RADIO	n/a	5	0	3	[0, 0, 0]	n/a	0	0	0	n/a	n/a	0.0	0	0	0	catFR3	0	R1243T
385.203	1.6	405450	WORD	n/a	wordpools/wordpool.txt	TELEVISION	Electronics	6	0	3	[0, 0, 0]	n/a	0	0	0	n/a	n/a	0.0	0	0	0	catFR3	0	R1243T
386.82	0.934	407066	WORD_OFF	n/a	n/a	TELEVISION	n/a	6	0	3	[0, 0, 0]	n/a	0	0	0	n/a	n/a	0.0	0	0	0	catFR3	0	R1243T
387.754	1.6	408000	WORD	n/a	wordpools/wordpool.txt	CLOUD	Weather	7	0	3	[0, 0, 0]	n/a	0	0	0	n/a	n/a	0.0	0	0	0	catFR3	0	R1243T
389.371	0.9	409617	WORD_OFF	n/a	n/a	CLOUD	n/a	7	0	3	[0, 0, 0]	n/a	0	0	0	n/a	n/a	0.0	0	0	0	catFR3	0	R1243T
390.271	1.6	410517	WORD	n/a	wordpools/wordpool.txt	HUMIDITY	Weather	8	0	3	[0, 0, 0]	n/a	0	0	0	n/a	n/a	0.0	0	0	0	catFR3	0	R1243T
391.888	0.782	412134	WORD_OFF	n/a	n/a	HUMIDITY	n/a	8	0	3	[0, 0, 0]	n/a	0	0	0	n/a	n/a	0.0	0	0	0	catFR3	0	R1243T
392.67	1.6	412916	WORD	n/a	wordpools/wordpool.txt	COBBLER	Desserts	9	1	3	[0, 0, 0]	n/a	0	0	0	n/a	n/a	0.0	0	0	0	catFR3	0	R1243T
394.288	0.8	414534	WORD_OFF	n/a	n/a	COBBLER	n/a	9	0	3	[0, 0, 0]	n/a	0	0	0	n/a	n/a	0.0	0	0	0	catFR3	0	R1243T
395.088	1.6	415334	WORD	n/a	wordpools/wordpool.txt	CUPCAKE	Desserts	10	1	3	[0, 0, 0]	n/a	0	0	0	n/a	n/a	0.0	0	0	0	catFR3	0	R1243T
396.705	0.833	416951	WORD_OFF	n/a	n/a	CUPCAKE	n/a	10	0	3	[0, 0, 0]	n/a	0	0	0	n/a	n/a	0.0	0	0	0	catFR3	0	R1243T
397.538	1.6	417784	WORD	n/a	wordpools/wordpool.txt	CALCULATOR	Electronics	11	1	3	[0, 0, 0]	n/a	0	0	0	n/a	n/a	0.0	0	0	0	catFR3	0	R1243T
399.139	0.867	419385	WORD_OFF	n/a	n/a	CALCULATOR	n/a	11	0	3	[0, 0, 0]	n/a	0	0	0	n/a	n/a	0.0	0	0	0	catFR3	0	R1243T
400.006	1.6	420252	WORD	n/a	wordpools/wordpool.txt	COMPUTER	Electronics	12	1	3	[0, 0, 0]	n/a	0	0	0	n/a	n/a	0.0	0	0	0	catFR3	0	R1243T
401.622	0.0	421868	ENCODING_END	n/a	n/a	n/a	n/a	-999	0	3	[0, 0, 0]	n/a	0	0	0	n/a	n/a	0.0	0	0	0	catFR3	0	R1243T
401.622	0.081	421868	WORD_OFF	n/a	n/a	COMPUTER	n/a	12	0	3	[0, 0, 0]	n/a	0	0	0	n/a	n/a	0.0	0	0	0	catFR3	0	R1243T
401.703	0.0	421949	DISTRACT_START	n/a	n/a	n/a	n/a	-999	0	3	[0, 0, 0]	n/a	0	0	0	n/a	n/a	0.0	0	0	0	catFR3	0	R1243T
401.703	0.02	421949	START	n/a	n/a	n/a	n/a	-999	0	3	[-999, -999, -999]	n/a	0	0	0	n/a	n/a	0.0	0	0	0	catFR3	0	R1243T
401.723	4.484	421969	PROB	4.452	n/a	n/a	n/a	-999	0	3	[5, 7, 7]	19	0	0	0	n/a	n/a	0.0	0	0	0	catFR3	0	R1243T
406.207	4.234	426452	PROB	4.208	n/a	n/a	n/a	-999	0	3	[2, 9, 7]	18	0	0	0	n/a	n/a	0.0	0	0	0	catFR3	0	R1243T
410.441	3.351	430686	PROB	3.325	n/a	n/a	n/a	-999	0	3	[8, 2, 8]	18	0	0	0	n/a	n/a	0.0	0	0	0	catFR3	0	R1243T
413.792	4.417	434037	PROB	4.384	n/a	n/a	n/a	-999	0	3	[5, 6, 5]	16	0	0	0	n/a	n/a	0.0	0	0	0	catFR3	0	R1243T
418.209	4.31	438454	PROB	4.31	n/a	n/a	n/a	-999	0	3	[8, 7, 1]	16	0	0	0	n/a	n/a	0.0	0	0	0	catFR3	0	R1243T
422.519	0.008	442763	STOP	n/a	n/a	n/a	n/a	-999	0	3	[-999, -999, -999]	n/a	0	0	0	n/a	n/a	0.0	0	0	0	catFR3	0	R1243T
422.527	0.516	442771	DISTRACT_END	n/a	n/a	n/a	n/a	-999	0	3	[0, 0, 0]	n/a	0	0	0	n/a	n/a	0.0	0	0	0	catFR3	0	R1243T
423.043	0.5	443287	RETRIEVAL_ORIENT	n/a	n/a	n/a	n/a	-999	0	3	[0, 0, 0]	n/a	0	0	0	n/a	n/a	0.0	0	0	0	catFR3	0	R1243T
423.56	3.264	443804	REC_START	n/a	n/a	n/a	n/a	-999	0	3	[0, 0, 0]	n/a	0	0	0	n/a	n/a	0.0	0	0	0	catFR3	0	R1243T
426.824	4.73	447068	REC_WORD	3.264	n/a	CUPCAKE	Desserts	10	1	3	[0, 0, 0]	n/a	0	0	0	n/a	n/a	0.0	0	0	0	catFR3	0	R1243T
431.554	2.449	451798	REC_WORD	7.994	n/a	COBBLER	Desserts	9	1	3	[0, 0, 0]	n/a	0	0	0	n/a	n/a	0.0	0	0	0	catFR3	0	R1243T
434.003	6.868	454247	REC_WORD	10.443	n/a	CHEESECAKE	Desserts	4	1	3	[0, 0, 0]	n/a	0	0	0	n/a	n/a	0.0	0	0	0	catFR3	0	R1243T
440.871	0.887	461114	REC_WORD	17.311	n/a	COMPUTER	Electronics	12	1	3	[0, 0, 0]	n/a	0	0	0	n/a	n/a	0.0	0	0	0	catFR3	0	R1243T
441.758	6.503	462001	REC_WORD	18.198	n/a	CALCULATOR	Electronics	11	1	3	[0, 0, 0]	n/a	0	0	0	n/a	n/a	0.0	0	0	0	catFR3	0	R1243T
448.261	5.31	468504	REC_WORD	24.701	n/a	PRINTER	n/a	-999	0	3	[0, 0, 0]	n/a	0	0	0	n/a	n/a	0.0	0	0	0	catFR3	0	R1243T
453.571	5.596	473813	REC_END	n/a	n/a	n/a	n/a	-999	0	3	[0, 0, 0]	n/a	0	0	0	n/a	n/a	0.0	0	0	0	catFR3	0	R1243T
459.167	0.5	479409	TRIAL	n/a	n/a	n/a	n/a	-999	0	4	[0, 0, 0]	n/a	0	0	0	n/a	n/a	0.0	0	0	0	catFR3	0	R1243T
459.667	10.0	479909	COUNTDOWN_START	n/a	n/a	n/a	n/a	-999	0	4	[0, 0, 0]	n/a	0	0	0	n/a	n/a	0.0	0	0	0	catFR3	0	R1243T
470.095	0.007	490336	COUNTDOWN_END	n/a	n/a	n/a	n/a	-999	0	4	[0, 0, 0]	n/a	0	0	0	n/a	n/a	0.0	0	0	0	catFR3	0	R1243T
470.102	1.6	490343	ORIENT	n/a	n/a	n/a	n/a	-999	0	4	[0, 0, 0]	n/a	0	0	0	n/a	n/a	0.0	0	0	0	catFR3	0	R1243T
471.719	2.234	491960	ORIENT_OFF	n/a	n/a	n/a	n/a	-999	0	4	[0, 0, 0]	n/a	0	0	0	n/a	n/a	0.0	0	0	0	catFR3	0	R1243T
473.953	1.6	494194	WORD	n/a	wordpools/wordpool.txt	BOOKCASE	Furniture	1	0	4	[0, 0, 0]	n/a	0	0	0	n/a	n/a	0.0	0	0	0	catFR3	0	R1243T
475.569	0.767	495810	WORD_OFF	n/a	n/a	BOOKCASE	n/a	1	0	4	[0, 0, 0]	n/a	0	0	0	n/a	n/a	0.0	0	0	0	catFR3	0	R1243T
476.336	1.6	496577	WORD	n/a	wordpools/wordpool.txt	DRESSER	Furniture	2	0	4	[0, 0, 0]	n/a	0	0	0	n/a	n/a	0.0	0	0	0	catFR3	0	R1243T
477.953	0.784	498194	WORD_OFF	n/a	n/a	DRESSER	n/a	2	0	4	[0, 0, 0]	n/a	0	0	0	n/a	n/a	0.0	0	0	0	catFR3	0	R1243T
478.737	1.6	498978	WORD	n/a	wordpools/wordpool.txt	MOUNTAIN	Landscapes	3	0	4	[0, 0, 0]	n/a	0	0	0	n/a	n/a	0.0	0	0	0	catFR3	0	R1243T
480.354	0.9	500595	WORD_OFF	n/a	n/a	MOUNTAIN	n/a	3	0	4	[0, 0, 0]	n/a	0	0	0	n/a	n/a	0.0	0	0	0	catFR3	0	R1243T
481.254	1.6	501495	WORD	n/a	wordpools/wordpool.txt	LAKE	Landscapes	4	0	4	[0, 0, 0]	n/a	0	0	0	n/a	n/a	0.0	0	0	0	catFR3	0	R1243T
482.871	0.867	503112	WORD_OFF	n/a	n/a	LAKE	n/a	4	0	4	[0, 0, 0]	n/a	0	0	0	n/a	n/a	0.0	0	0	0	catFR3	0	R1243T
483.738	1.6	503979	WORD	n/a	wordpools/wordpool.txt	STAIRS	Building	5	0	4	[0, 0, 0]	n/a	0	0	0	n/a	n/a	0.0	0	0	0	catFR3	0	R1243T
485.355	0.783	505595	WORD_OFF	n/a	n/a	STAIRS	n/a	5	0	4	[0, 0, 0]	n/a	0	0	0	n/a	n/a	0.0	0	0	0	catFR3	0	R1243T
486.138	1.6	506378	WORD	n/a	wordpools/wordpool.txt	WALL	Building	6	0	4	[0, 0, 0]	n/a	0	0	0	n/a	n/a	0.0	0	0	0	catFR3	0	R1243T
487.755	0.916	507995	WORD_OFF	n/a	n/a	WALL	n/a	6	0	4	[0, 0, 0]	n/a	0	0	0	n/a	n/a	0.0	0	0	0	catFR3	0	R1243T
488.671	1.6	508911	WORD	n/a	wordpools/wordpool.txt	BED	Furniture	7	0	4	[0, 0, 0]	n/a	0	0	0	n/a	n/a	0.0	0	0	0	catFR3	0	R1243T
490.289	0.95	510529	WORD_OFF	n/a	n/a	BED	n/a	7	0	4	[0, 0, 0]	n/a	0	0	0	n/a	n/a	0.0	0	0	0	catFR3	0	R1243T
491.239	1.6	511479	WORD	n/a	wordpools/wordpool.txt	CHAIR	Furniture	8	0	4	[0, 0, 0]	n/a	0	0	0	n/a	n/a	0.0	0	0	0	catFR3	0	R1243T
492.856	0.85	513096	WORD_OFF	n/a	n/a	CHAIR	n/a	8	0	4	[0, 0, 0]	n/a	0	0	0	n/a	n/a	0.0	0	0	0	catFR3	0	R1243T
493.706	1.6	513946	WORD	n/a	wordpools/wordpool.txt	HILLS	Landscapes	9	0	4	[0, 0, 0]	n/a	0	0	0	n/a	n/a	0.0	0	0	0	catFR3	0	R1243T
495.323	0.967	515563	WORD_OFF	n/a	n/a	HILLS	n/a	9	0	4	[0, 0, 0]	n/a	0	0	0	n/a	n/a	0.0	0	0	0	catFR3	0	R1243T
496.29	1.6	516530	WORD	n/a	wordpools/wordpool.txt	ISLAND	Landscapes	10	0	4	[0, 0, 0]	n/a	0	0	0	n/a	n/a	0.0	0	0	0	catFR3	0	R1243T
497.907	0.934	518147	WORD_OFF	n/a	n/a	ISLAND	n/a	10	0	4	[0, 0, 0]	n/a	0	0	0	n/a	n/a	0.0	0	0	0	catFR3	0	R1243T
498.841	1.6	519081	WORD	n/a	wordpools/wordpool.txt	ATTIC	Building	11	1	4	[0, 0, 0]	n/a	0	0	0	n/a	n/a	0.0	0	0	0	catFR3	0	R1243T
500.457	0.984	520696	WORD_OFF	n/a	n/a	ATTIC	n/a	11	0	4	[0, 0, 0]	n/a	0	0	0	n/a	n/a	0.0	0	0	0	catFR3	0	R1243T
501.441	1.6	521680	WORD	n/a	wordpools/wordpool.txt	HALLWAY	Building	12	0	4	[0, 0, 0]	n/a	0	0	0	n/a	n/a	0.0	0	0	0	catFR3	0	R1243T
503.058	0.0	523297	ENCODING_END	n/a	n/a	n/a	n/a	-999	0	4	[0, 0, 0]	n/a	0	0	0	n/a	n/a	0.0	0	0	0	catFR3	0	R1243T
503.058	0.08	523297	WORD_OFF	n/a	n/a	HALLWAY	n/a	12	0	4	[0, 0, 0]	n/a	0	0	0	n/a	n/a	0.0	0	0	0	catFR3	0	R1243T
503.138	0.0	523377	DISTRACT_START	n/a	n/a	n/a	n/a	-999	0	4	[0, 0, 0]	n/a	0	0	0	n/a	n/a	0.0	0	0	0	catFR3	0	R1243T
503.138	0.02	523377	START	n/a	n/a	n/a	n/a	-999	0	4	[-999, -999, -999]	n/a	0	0	0	n/a	n/a	0.0	0	0	0	catFR3	0	R1243T
503.158	3.217	523397	PROB	3.193	n/a	n/a	n/a	-999	0	4	[2, 3, 4]	9	0	0	0	n/a	n/a	0.0	0	0	0	catFR3	0	R1243T
506.375	4.551	526614	PROB	4.513	n/a	n/a	n/a	-999	0	4	[9, 6, 3]	18	0	0	0	n/a	n/a	0.0	0	0	0	catFR3	0	R1243T
510.926	4.101	531165	PROB	4.065	n/a	n/a	n/a	-999	0	4	[7, 6, 2]	15	0	0	0	n/a	n/a	0.0	0	0	0	catFR3	0	R1243T
515.027	5.101	535266	PROB	5.075	n/a	n/a	n/a	-999	0	4	[8, 7, 1]	16	0	0	0	n/a	n/a	0.0	0	0	0	catFR3	0	R1243T
520.128	4.703	540366	PROB	4.703	n/a	n/a	n/a	-999	0	4	[6, 8, 5]	19	0	0	0	n/a	n/a	0.0	0	0	0	catFR3	0	R1243T
524.831	0.015	545069	STOP	n/a	n/a	n/a	n/a	-999	0	4	[-999, -999, -999]	n/a	0	0	0	n/a	n/a	0.0	0	0	0	catFR3	0	R1243T
524.846	0.549	545084	DISTRACT_END	n/a	n/a	n/a	n/a	-999	0	4	[0, 0, 0]	n/a	0	0	0	n/a	n/a	0.0	0	0	0	catFR3	0	R1243T
525.395	0.5	545633	RETRIEVAL_ORIENT	n/a	n/a	n/a	n/a	-999	0	4	[0, 0, 0]	n/a	0	0	0	n/a	n/a	0.0	0	0	0	catFR3	0	R1243T
525.913	1.525	546151	REC_START	n/a	n/a	n/a	n/a	-999	0	4	[0, 0, 0]	n/a	0	0	0	n/a	n/a	0.0	0	0	0	catFR3	0	R1243T
527.438	0.913	547676	REC_WORD	1.525	n/a	ATTIC	Building	11	1	4	[0, 0, 0]	n/a	0	0	0	n/a	n/a	0.0	0	0	0	catFR3	0	R1243T
528.351	2.852	548589	REC_WORD	2.438	n/a	STAIRWAY	n/a	-999	0	4	[0, 0, 0]	n/a	0	0	0	n/a	n/a	0.0	0	0	0	catFR3	0	R1243T
531.203	12.012	551441	REC_WORD	5.29	n/a	HALL	n/a	-999	0	4	[0, 0, 0]	n/a	0	0	0	n/a	n/a	0.0	0	0	0	catFR3	0	R1243T
543.215	12.71	563452	REC_WORD	17.302	n/a	DOOR	n/a	-999	0	4	[0, 0, 0]	n/a	0	0	0	n/a	n/a	0.0	0	0	0	catFR3	0	R1243T
555.925	5.043	576161	REC_END	n/a	n/a	n/a	n/a	-999	0	4	[0, 0, 0]	n/a	0	0	0	n/a	n/a	0.0	0	0	0	catFR3	0	R1243T
560.968	0.5	581204	TRIAL	n/a	n/a	n/a	n/a	-999	0	5	[0, 0, 0]	n/a	0	1	0	n/a	n/a	0.0	0	0	0	catFR3	0	R1243T
561.468	10.0	581704	COUNTDOWN_START	n/a	n/a	n/a	n/a	-999	0	5	[0, 0, 0]	n/a	0	1	0	n/a	n/a	0.0	0	0	0	catFR3	0	R1243T
571.896	0.008	592131	COUNTDOWN_END	n/a	n/a	n/a	n/a	-999	0	5	[0, 0, 0]	n/a	0	1	0	n/a	n/a	0.0	0	0	0	catFR3	0	R1243T
571.904	1.6	592139	ORIENT	n/a	n/a	n/a	n/a	-999	0	5	[0, 0, 0]	n/a	0	1	0	n/a	n/a	0.0	0	0	0	catFR3	0	R1243T
573.521	2.184	593756	ORIENT_OFF	n/a	n/a	n/a	n/a	-999	0	5	[0, 0, 0]	n/a	0	1	0	n/a	n/a	0.0	0	0	0	catFR3	0	R1243T
575.705	1.6	595940	WORD	n/a	wordpools/wordpool.txt	LEVEL	Tools	1	0	5	[0, 0, 0]	n/a	0	1	0	n/a	n/a	0.0	0	0	0	catFR3	0	R1243T
577.322	0.85	597557	WORD_OFF	n/a	n/a	LEVEL	n/a	1	0	5	[0, 0, 0]	n/a	0	1	0	n/a	n/a	0.0	0	0	0	catFR3	0	R1243T
578.172	1.6	598407	WORD	n/a	wordpools/wordpool.txt	WRENCH	Tools	2	1	5	[0, 0, 0]	n/a	0	1	0	n/a	n/a	0.0	0	0	0	catFR3	0	R1243T
578.327	0.5	598562	STIM_ON	n/a	n/a	WRENCH	n/a	2	1	5	[0, 0, 0]	n/a	1	1	500	LB8	LB9	750.0	100	50	300	catFR3	0	R1243T
578.817	0.972	599052	STIM_OFF	n/a	n/a	n/a	n/a	2	0	5	[0, 0, 0]	n/a	0	1	500	LB8	LB9	750.0	100	50	300	catFR3	0	R1243T
579.789	0.782	600024	WORD_OFF	n/a	n/a	WRENCH	n/a	2	0	5	[0, 0, 0]	n/a	0	1	0	n/a	n/a	0.0	0	0	0	catFR3	0	R1243T
580.571	1.6	600806	WORD	n/a	wordpools/wordpool.txt	PEAS	Vegetables	3	1	5	[0, 0, 0]	n/a	0	1	0	n/a	n/a	0.0	0	0	0	catFR3	0	R1243T
582.189	0.95	602423	WORD_OFF	n/a	n/a	PEAS	n/a	3	0	5	[0, 0, 0]	n/a	0	1	0	n/a	n/a	0.0	0	0	0	catFR3	0	R1243T
583.139	1.6	603373	WORD	n/a	wordpools/wordpool.txt	CABBAGE	Vegetables	4	1	5	[0, 0, 0]	n/a	0	1	0	n/a	n/a	0.0	0	0	0	catFR3	0	R1243T
584.756	0.832	604990	WORD_OFF	n/a	n/a	CABBAGE	n/a	4	0	5	[0, 0, 0]	n/a	0	1	0	n/a	n/a	0.0	0	0	0	catFR3	0	R1243T
585.588	1.6	605822	WORD	n/a	wordpools/wordpool.txt	TABLET	Electronics	5	0	5	[0, 0, 0]	n/a	0	1	0	n/a	n/a	0.0	0	0	0	catFR3	0	R1243T
587.207	0.967	607441	WORD_OFF	n/a	n/a	TABLET	n/a	5	0	5	[0, 0, 0]	n/a	0	1	0	n/a	n/a	0.0	0	0	0	catFR3	0	R1243T
588.174	1.6	608408	WORD	n/a	wordpools/wordpool.txt	MICROWAVE	Electronics	6	0	5	[0, 0, 0]	n/a	0	1	0	n/a	n/a	0.0	0	0	0	catFR3	0	R1243T
589.791	0.782	610025	WORD_OFF	n/a	n/a	MICROWAVE	n/a	6	0	5	[0, 0, 0]	n/a	0	1	0	n/a	n/a	0.0	0	0	0	catFR3	0	R1243T
590.573	1.6	610807	WORD	n/a	wordpools/wordpool.txt	LETTUCE	Vegetables	7	1	5	[0, 0, 0]	n/a	0	1	0	n/a	n/a	0.0	0	0	0	catFR3	0	R1243T
590.724	0.5	610958	STIM_ON	n/a	n/a	LETTUCE	n/a	7	1	5	[0, 0, 0]	n/a	1	1	500	LB8	LB9	750.0	100	50	300	catFR3	0	R1243T
591.214	0.977	611448	STIM_OFF	n/a	n/a	n/a	n/a	7	0	5	[0, 0, 0]	n/a	0	1	500	LB8	LB9	750.0	100	50	300	catFR3	0	R1243T
592.191	0.833	612425	WORD_OFF	n/a	n/a	LETTUCE	n/a	7	0	5	[0, 0, 0]	n/a	0	1	0	n/a	n/a	0.0	0	0	0	catFR3	0	R1243T
593.024	1.6	613258	WORD	n/a	wordpools/wordpool.txt	CORN	Vegetables	8	1	5	[0, 0, 0]	n/a	0	1	0	n/a	n/a	0.0	0	0	0	catFR3	0	R1243T
593.177	0.5	613411	STIM_ON	n/a	n/a	CORN	n/a	8	1	5	[0, 0, 0]	n/a	1	1	500	LB8	LB9	750.0	100	50	300	catFR3	0	R1243T
593.667	0.973	613901	STIM_OFF	n/a	n/a	n/a	n/a	8	0	5	[0, 0, 0]	n/a	0	1	500	LB8	LB9	750.0	100	50	300	catFR3	0	R1243T
594.64	1.0	614874	WORD_OFF	n/a	n/a	CORN	n/a	8	0	5	[0, 0, 0]	n/a	0	1	0	n/a	n/a	0.0	0	0	0	catFR3	0	R1243T
595.64	1.6	615874	WORD	n/a	wordpools/wordpool.txt	SCREWDRIVER	Tools	9	1	5	[0, 0, 0]	n/a	0	1	0	n/a	n/a	0.0	0	0	0	catFR3	0	R1243T
595.789	0.5	616023	STIM_ON	n/a	n/a	SCREWDRIVER	n/a	9	1	5	[0, 0, 0]	n/a	1	1	500	LB8	LB9	750.0	100	50	300	catFR3	0	R1243T
596.279	0.963	616513	STIM_OFF	n/a	n/a	n/a	n/a	9	0	5	[0, 0, 0]	n/a	0	1	500	LB8	LB9	750.0	100	50	300	catFR3	0	R1243T
597.242	0.95	617476	WORD_OFF	n/a	n/a	SCREWDRIVER	n/a	9	0	5	[0, 0, 0]	n/a	0	1	0	n/a	n/a	0.0	0	0	0	catFR3	0	R1243T
598.192	1.6	618425	WORD	n/a	wordpools/wordpool.txt	SAW	Tools	10	0	5	[0, 0, 0]	n/a	0	1	0	n/a	n/a	0.0	0	0	0	catFR3	0	R1243T
599.809	0.799	620042	WORD_OFF	n/a	n/a	SAW	n/a	10	0	5	[0, 0, 0]	n/a	0	1	0	n/a	n/a	0.0	0	0	0	catFR3	0	R1243T
600.608	1.6	620841	WORD	n/a	wordpools/wordpool.txt	SCANNER	Electronics	11	0	5	[0, 0, 0]	n/a	0	1	0	n/a	n/a	0.0	0	0	0	catFR3	0	R1243T
600.758	0.5	620991	STIM_ON	n/a	n/a	SCANNER	n/a	11	0	5	[0, 0, 0]	n/a	1	1	500	LB8	LB9	750.0	100	50	300	catFR3	0	R1243T
601.248	0.978	621481	STIM_OFF	n/a	n/a	n/a	n/a	11	0	5	[0, 0, 0]	n/a	0	1	500	LB8	LB9	750.0	100	50	300	catFR3	0	R1243T
602.226	0.834	622459	WORD_OFF	n/a	n/a	SCANNER	n/a	11	0	5	[0, 0, 0]	n/a	0	1	0	n/a	n/a	0.0	0	0	0	catFR3	0	R1243T
603.06	1.6	623293	WORD	n/a	wordpools/wordpool.txt	STEREO	Electronics	12	0	5	[0, 0, 0]	n/a	0	1	0	n/a	n/a	0.0	0	0	0	catFR3	0	R1243T
603.212	0.5	623445	STIM_ON	n/a	n/a	n/a	n/a	11	0	5	[0, 0, 0]	n/a	1	1	500	LB8	LB9	750.0	100	50	300	catFR3	0	R1243T
603.702	0.974	623935	STIM_OFF	n/a	n/a	n/a	n/a	11	0	5	[0, 0, 0]	n/a	0	1	500	LB8	LB9	750.0	100	50	300	catFR3	0	R1243T
604.676	0.0	624909	WORD_OFF	n/a	n/a	STEREO	n/a	12	0	5	[0, 0, 0]	n/a	0	1	0	n/a	n/a	0.0	0	0	0	catFR3	0	R1243T
604.676	0.085	624909	ENCODING_END	n/a	n/a	n/a	n/a	-999	0	5	[0, 0, 0]	n/a	0	1	0	n/a	n/a	0.0	0	0	0	catFR3	0	R1243T
604.761	0.0	624994	DISTRACT_START	n/a	n/a	n/a	n/a	-999	0	5	[0, 0, 0]	n/a	0	1	0	n/a	n/a	0.0	0	0	0	catFR3	0	R1243T
604.761	0.016	624994	START	n/a	n/a	n/a	n/a	-999	0	5	[-999, -999, -999]	n/a	0	1	0	n/a	n/a	0.0	0	0	0	catFR3	0	R1243T
604.777	5.067	625010	PROB	5.038	n/a	n/a	n/a	-999	0	5	[8, 3, 5]	16	0	1	0	n/a	n/a	0.0	0	0	0	catFR3	0	R1243T
609.844	3.417	630077	PROB	3.378	n/a	n/a	n/a	-999	0	5	[8, 8, 8]	24	0	1	0	n/a	n/a	0.0	0	0	0	catFR3	0	R1243T
613.261	3.184	633494	PROB	3.154	n/a	n/a	n/a	-999	0	5	[4, 6, 7]	17	0	1	0	n/a	n/a	0.0	0	0	0	catFR3	0	R1243T
616.445	4.868	636677	PROB	4.833	n/a	n/a	n/a	-999	0	5	[9, 4, 5]	18	0	1	0	n/a	n/a	0.0	0	0	0	catFR3	0	R1243T
621.313	3.679	641545	PROB	3.679	n/a	n/a	n/a	-999	0	5	[7, 9, 1]	17	0	1	0	n/a	n/a	0.0	0	0	0	catFR3	0	R1243T
624.992	0.022	645224	STOP	n/a	n/a	n/a	n/a	-999	0	5	[-999, -999, -999]	n/a	0	1	0	n/a	n/a	0.0	0	0	0	catFR3	0	R1243T
625.014	0.582	645246	DISTRACT_END	n/a	n/a	n/a	n/a	-999	0	5	[0, 0, 0]	n/a	0	1	0	n/a	n/a	0.0	0	0	0	catFR3	0	R1243T
625.596	0.5	645828	RETRIEVAL_ORIENT	n/a	n/a	n/a	n/a	-999	0	5	[0, 0, 0]	n/a	0	1	0	n/a	n/a	0.0	0	0	0	catFR3	0	R1243T
626.114	1.59	646346	REC_START	n/a	n/a	n/a	n/a	-999	0	5	[0, 0, 0]	n/a	0	1	0	n/a	n/a	0.0	0	0	0	catFR3	0	R1243T
627.704	1.417	647936	REC_WORD	1.59	n/a	WRENCH	Tools	2	1	5	[0, 0, 0]	n/a	0	1	0	n/a	n/a	0.0	0	0	0	catFR3	0	R1243T
629.121	7.043	649353	REC_WORD	3.007	n/a	SCREWDRIVER	Tools	9	1	5	[0, 0, 0]	n/a	0	1	0	n/a	n/a	0.0	0	0	0	catFR3	0	R1243T
636.164	5.088	656395	REC_WORD	10.05	n/a	PLIERS	n/a	-999	0	5	[0, 0, 0]	n/a	0	1	0	n/a	n/a	0.0	0	0	0	catFR3	0	R1243T
641.252	1.294	661483	REC_WORD	15.138	n/a	CABBAGE	Vegetables	4	1	5	[0, 0, 0]	n/a	0	1	0	n/a	n/a	0.0	0	0	0	catFR3	0	R1243T
642.546	1.299	662777	REC_WORD	16.432	n/a	CORN	Vegetables	8	1	5	[0, 0, 0]	n/a	0	1	0	n/a	n/a	0.0	0	0	0	catFR3	0	R1243T
643.845	1.433	664076	REC_WORD	17.731	n/a	LETTUCE	Vegetables	7	1	5	[0, 0, 0]	n/a	0	1	0	n/a	n/a	0.0	0	0	0	catFR3	0	R1243T
645.278	10.85	665509	REC_WORD	19.164	n/a	PEAS	Vegetables	3	1	5	[0, 0, 0]	n/a	0	1	0	n/a	n/a	0.0	0	0	0	catFR3	0	R1243T
656.128	5.441	676358	REC_END	n/a	n/a	n/a	n/a	-999	0	5	[0, 0, 0]	n/a	0	1	0	n/a	n/a	0.0	0	0	0	catFR3	0	R1243T
661.569	0.5	681799	TRIAL	n/a	n/a	n/a	n/a	-999	0	6	[0, 0, 0]	n/a	0	0	0	n/a	n/a	0.0	0	0	0	catFR3	0	R1243T
662.069	10.0	682299	COUNTDOWN_START	n/a	n/a	n/a	n/a	-999	0	6	[0, 0, 0]	n/a	0	0	0	n/a	n/a	0.0	0	0	0	catFR3	0	R1243T
672.497	0.009	692726	COUNTDOWN_END	n/a	n/a	n/a	n/a	-999	0	6	[0, 0, 0]	n/a	0	0	0	n/a	n/a	0.0	0	0	0	catFR3	0	R1243T
672.506	1.6	692735	ORIENT	n/a	n/a	n/a	n/a	-999	0	6	[0, 0, 0]	n/a	0	0	0	n/a	n/a	0.0	0	0	0	catFR3	0	R1243T
674.123	2.1	694352	ORIENT_OFF	n/a	n/a	n/a	n/a	-999	0	6	[0, 0, 0]	n/a	0	0	0	n/a	n/a	0.0	0	0	0	catFR3	0	R1243T
676.223	1.6	696452	WORD	n/a	wordpools/wordpool.txt	ROSE	Flowers	1	0	6	[0, 0, 0]	n/a	0	0	0	n/a	n/a	0.0	0	0	0	catFR3	0	R1243T
677.84	0.9	698069	WORD_OFF	n/a	n/a	ROSE	n/a	1	0	6	[0, 0, 0]	n/a	0	0	0	n/a	n/a	0.0	0	0	0	catFR3	0	R1243T
678.74	1.6	698969	WORD	n/a	wordpools/wordpool.txt	LILAC	Flowers	2	0	6	[0, 0, 0]	n/a	0	0	0	n/a	n/a	0.0	0	0	0	catFR3	0	R1243T
680.357	0.8	700585	WORD_OFF	n/a	n/a	LILAC	n/a	2	0	6	[0, 0, 0]	n/a	0	0	0	n/a	n/a	0.0	0	0	0	catFR3	0	R1243T
681.157	1.6	701385	WORD	n/a	wordpools/wordpool.txt	SQUID	OceanAnimals	3	1	6	[0, 0, 0]	n/a	0	0	0	n/a	n/a	0.0	0	0	0	catFR3	0	R1243T
682.774	0.833	703002	WORD_OFF	n/a	n/a	SQUID	n/a	3	0	6	[0, 0, 0]	n/a	0	0	0	n/a	n/a	0.0	0	0	0	catFR3	0	R1243T
683.607	1.6	703835	WORD	n/a	wordpools/wordpool.txt	FISH	OceanAnimals	4	1	6	[0, 0, 0]	n/a	0	0	0	n/a	n/a	0.0	0	0	0	catFR3	0	R1243T
685.225	0.883	705453	WORD_OFF	n/a	n/a	FISH	n/a	4	0	6	[0, 0, 0]	n/a	0	0	0	n/a	n/a	0.0	0	0	0	catFR3	0	R1243T
686.108	1.6	706336	WORD	n/a	wordpools/wordpool.txt	FUDGE	Desserts	5	0	6	[0, 0, 0]	n/a	0	0	0	n/a	n/a	0.0	0	0	0	catFR3	0	R1243T
687.725	0.849	707953	WORD_OFF	n/a	n/a	FUDGE	n/a	5	0	6	[0, 0, 0]	n/a	0	0	0	n/a	n/a	0.0	0	0	0	catFR3	0	R1243T
688.574	1.6	708802	WORD	n/a	wordpools/wordpool.txt	PIE	Desserts	6	0	6	[0, 0, 0]	n/a	0	0	0	n/a	n/a	0.0	0	0	0	catFR3	0	R1243T
690.192	0.95	710420	WORD_OFF	n/a	n/a	PIE	n/a	6	0	6	[0, 0, 0]	n/a	0	0	0	n/a	n/a	0.0	0	0	0	catFR3	0	R1243T
691.142	1.6	711370	WORD	n/a	wordpools/wordpool.txt	PETUNIA	Flowers	7	0	6	[0, 0, 0]	n/a	0	0	0	n/a	n/a	0.0	0	0	0	catFR3	0	R1243T
692.759	0.782	712987	WORD_OFF	n/a	n/a	PETUNIA	n/a	7	0	6	[0, 0, 0]	n/a	0	0	0	n/a	n/a	0.0	0	0	0	catFR3	0	R1243T
693.541	1.6	713769	WORD	n/a	wordpools/wordpool.txt	VIOLET	Flowers	8	0	6	[0, 0, 0]	n/a	0	0	0	n/a	n/a	0.0	0	0	0	catFR3	0	R1243T
695.143	1.0	715371	WORD_OFF	n/a	n/a	VIOLET	n/a	8	0	6	[0, 0, 0]	n/a	0	0	0	n/a	n/a	0.0	0	0	0	catFR3	0	R1243T
696.143	1.6	716370	WORD	n/a	wordpools/wordpool.txt	WHALE	OceanAnimals	9	1	6	[0, 0, 0]	n/a	0	0	0	n/a	n/a	0.0	0	0	0	catFR3	0	R1243T
697.76	0.933	717987	WORD_OFF	n/a	n/a	WHALE	n/a	9	0	6	[0, 0, 0]	n/a	0	0	0	n/a	n/a	0.0	0	0	0	catFR3	0	R1243T
698.693	1.6	718920	WORD	n/a	wordpools/wordpool.txt	OYSTER	OceanAnimals	10	0	6	[0, 0, 0]	n/a	0	0	0	n/a	n/a	0.0	0	0	0	catFR3	0	R1243T
700.311	0.883	720538	WORD_OFF	n/a	n/a	OYSTER	n/a	10	0	6	[0, 0, 0]	n/a	0	0	0	n/a	n/a	0.0	0	0	0	catFR3	0	R1243T
701.194	1.6	721421	WORD	n/a	wordpools/wordpool.txt	BROWNIES	Desserts	11	1	6	[0, 0, 0]	n/a	0	0	0	n/a	n/a	0.0	0	0	0	catFR3	0	R1243T
702.811	1.0	723038	WORD_OFF	n/a	n/a	BROWNIES	n/a	11	0	6	[0, 0, 0]	n/a	0	0	0	n/a	n/a	0.0	0	0	0	catFR3	0	R1243T
703.811	1.6	724038	WORD	n/a	wordpools/wordpool.txt	COOKIE	Desserts	12	0	6	[0, 0, 0]	n/a	0	0	0	n/a	n/a	0.0	0	0	0	catFR3	0	R1243T
705.428	0.001	725655	WORD_OFF	n/a	n/a	COOKIE	n/a	12	0	6	[0, 0, 0]	n/a	0	0	0	n/a	n/a	0.0	0	0	0	catFR3	0	R1243T
705.429	0.085	725656	ENCODING_END	n/a	n/a	n/a	n/a	-999	0	6	[0, 0, 0]	n/a	0	0	0	n/a	n/a	0.0	0	0	0	catFR3	0	R1243T
705.514	0.0	725741	DISTRACT_START	n/a	n/a	n/a	n/a	-999	0	6	[0, 0, 0]	n/a	0	0	0	n/a	n/a	0.0	0	0	0	catFR3	0	R1243T
705.514	0.014	725741	START	n/a	n/a	n/a	n/a	-999	0	6	[-999, -999, -999]	n/a	0	0	0	n/a	n/a	0.0	0	0	0	catFR3	0	R1243T
705.528	3.984	725755	PROB	3.959	n/a	n/a	n/a	-999	0	6	[1, 4, 1]	6	0	0	0	n/a	n/a	0.0	0	0	0	catFR3	0	R1243T
709.512	3.351	729739	PROB	3.327	n/a	n/a	n/a	-999	0	6	[5, 7, 3]	15	0	0	0	n/a	n/a	0.0	0	0	0	catFR3	0	R1243T
712.863	4.034	733089	PROB	4.0	n/a	n/a	n/a	-999	0	6	[3, 9, 4]	16	0	0	0	n/a	n/a	0.0	0	0	0	catFR3	0	R1243T
716.897	3.801	737123	PROB	3.773	n/a	n/a	n/a	-999	0	6	[3, 9, 9]	22	0	0	0	n/a	n/a	0.0	0	0	0	catFR3	0	R1243T
720.698	4.869	740924	PROB	4.869	n/a	n/a	n/a	-999	0	6	[7, 3, 9]	19	0	0	0	n/a	n/a	0.0	0	0	0	catFR3	0	R1243T
725.567	0.014	745793	STOP	n/a	n/a	n/a	n/a	-999	0	6	[-999, -999, -999]	n/a	0	0	0	n/a	n/a	0.0	0	0	0	catFR3	0	R1243T
725.581	0.651	745807	DISTRACT_END	n/a	n/a	n/a	n/a	-999	0	6	[0, 0, 0]	n/a	0	0	0	n/a	n/a	0.0	0	0	0	catFR3	0	R1243T
726.232	0.5	746458	RETRIEVAL_ORIENT	n/a	n/a	n/a	n/a	-999	0	6	[0, 0, 0]	n/a	0	0	0	n/a	n/a	0.0	0	0	0	catFR3	0	R1243T
726.749	1.717	746975	REC_START	n/a	n/a	n/a	n/a	-999	0	6	[0, 0, 0]	n/a	0	0	0	n/a	n/a	0.0	0	0	0	catFR3	0	R1243T
728.466	1.544	748691	REC_WORD	1.717	n/a	WHALE	OceanAnimals	9	1	6	[0, 0, 0]	n/a	0	0	0	n/a	n/a	0.0	0	0	0	catFR3	0	R1243T
730.01	2.225	750235	REC_WORD	3.261	n/a	SQUID	OceanAnimals	3	1	6	[0, 0, 0]	n/a	0	0	0	n/a	n/a	0.0	0	0	0	catFR3	0	R1243T
732.235	4.652	752460	REC_WORD	5.486	n/a	FISH	OceanAnimals	4	1	6	[0, 0, 0]	n/a	0	0	0	n/a	n/a	0.0	0	0	0	catFR3	0	R1243T
736.887	3.808	757112	REC_WORD	10.138	n/a	BROWNIES	Desserts	11	1	6	[0, 0, 0]	n/a	0	0	0	n/a	n/a	0.0	0	0	0	catFR3	0	R1243T
740.695	16.067	760920	REC_WORD	13.946	n/a	COOKIES	n/a	-999	0	6	[0, 0, 0]	n/a	0	0	0	n/a	n/a	0.0	0	0	0	catFR3	0	R1243T
756.762	4.909	776986	REC_END	n/a	n/a	n/a	n/a	-999	0	6	[0, 0, 0]	n/a	0	0	0	n/a	n/a	0.0	0	0	0	catFR3	0	R1243T
761.671	0.5	781894	TRIAL	n/a	n/a	n/a	n/a	-999	0	7	[0, 0, 0]	n/a	0	0	0	n/a	n/a	0.0	0	0	0	catFR3	0	R1243T
762.171	10.0	782394	COUNTDOWN_START	n/a	n/a	n/a	n/a	-999	0	7	[0, 0, 0]	n/a	0	0	0	n/a	n/a	0.0	0	0	0	catFR3	0	R1243T
772.599	0.007	792822	COUNTDOWN_END	n/a	n/a	n/a	n/a	-999	0	7	[0, 0, 0]	n/a	0	0	0	n/a	n/a	0.0	0	0	0	catFR3	0	R1243T
772.606	1.6	792829	ORIENT	n/a	n/a	n/a	n/a	-999	0	7	[0, 0, 0]	n/a	0	0	0	n/a	n/a	0.0	0	0	0	catFR3	0	R1243T
774.224	2.167	794447	ORIENT_OFF	n/a	n/a	n/a	n/a	-999	0	7	[0, 0, 0]	n/a	0	0	0	n/a	n/a	0.0	0	0	0	catFR3	0	R1243T
776.391	1.6	796614	WORD	n/a	wordpools/wordpool.txt	TUBA	Instruments	1	0	7	[0, 0, 0]	n/a	0	0	0	n/a	n/a	0.0	0	0	0	catFR3	0	R1243T
778.008	0.834	798230	WORD_OFF	n/a	n/a	TUBA	n/a	1	0	7	[0, 0, 0]	n/a	0	0	0	n/a	n/a	0.0	0	0	0	catFR3	0	R1243T
778.842	1.6	799064	WORD	n/a	wordpools/wordpool.txt	DRUM	Instruments	2	0	7	[0, 0, 0]	n/a	0	0	0	n/a	n/a	0.0	0	0	0	catFR3	0	R1243T
780.459	0.9	800681	WORD_OFF	n/a	n/a	DRUM	n/a	2	0	7	[0, 0, 0]	n/a	0	0	0	n/a	n/a	0.0	0	0	0	catFR3	0	R1243T
781.359	1.6	801581	WORD	n/a	wordpools/wordpool.txt	HEN	FarmAnimals	3	1	7	[0, 0, 0]	n/a	0	0	0	n/a	n/a	0.0	0	0	0	catFR3	0	R1243T
782.976	0.933	803198	WORD_OFF	n/a	n/a	HEN	n/a	3	0	7	[0, 0, 0]	n/a	0	0	0	n/a	n/a	0.0	0	0	0	catFR3	0	R1243T
783.909	1.6	804131	WORD	n/a	wordpools/wordpool.txt	ROOSTER	FarmAnimals	4	0	7	[0, 0, 0]	n/a	0	0	0	n/a	n/a	0.0	0	0	0	catFR3	0	R1243T
785.526	0.95	805748	WORD_OFF	n/a	n/a	ROOSTER	n/a	4	0	7	[0, 0, 0]	n/a	0	0	0	n/a	n/a	0.0	0	0	0	catFR3	0	R1243T
786.476	1.6	806698	WORD	n/a	wordpools/wordpool.txt	PLANE	Vehicles	5	1	7	[0, 0, 0]	n/a	0	0	0	n/a	n/a	0.0	0	0	0	catFR3	0	R1243T
788.093	0.767	808315	WORD_OFF	n/a	n/a	PLANE	n/a	5	0	7	[0, 0, 0]	n/a	0	0	0	n/a	n/a	0.0	0	0	0	catFR3	0	R1243T
788.86	1.6	809082	WORD	n/a	wordpools/wordpool.txt	BUS	Vehicles	6	1	7	[0, 0, 0]	n/a	0	0	0	n/a	n/a	0.0	0	0	0	catFR3	0	R1243T
790.477	0.917	810699	WORD_OFF	n/a	n/a	BUS	n/a	6	0	7	[0, 0, 0]	n/a	0	0	0	n/a	n/a	0.0	0	0	0	catFR3	0	R1243T
791.394	1.6	811616	WORD	n/a	wordpools/wordpool.txt	COW	FarmAnimals	7	1	7	[0, 0, 0]	n/a	0	0	0	n/a	n/a	0.0	0	0	0	catFR3	0	R1243T
793.011	0.9	813233	WORD_OFF	n/a	n/a	COW	n/a	7	0	7	[0, 0, 0]	n/a	0	0	0	n/a	n/a	0.0	0	0	0	catFR3	0	R1243T
793.911	1.6	814132	WORD	n/a	wordpools/wordpool.txt	GOAT	FarmAnimals	8	0	7	[0, 0, 0]	n/a	0	0	0	n/a	n/a	0.0	0	0	0	catFR3	0	R1243T
795.528	0.884	815749	WORD_OFF	n/a	n/a	GOAT	n/a	8	0	7	[0, 0, 0]	n/a	0	0	0	n/a	n/a	0.0	0	0	0	catFR3	0	R1243T
796.412	1.6	816633	WORD	n/a	wordpools/wordpool.txt	BANJO	Instruments	9	0	7	[0, 0, 0]	n/a	0	0	0	n/a	n/a	0.0	0	0	0	catFR3	0	R1243T
798.028	0.984	818249	WORD_OFF	n/a	n/a	BANJO	n/a	9	0	7	[0, 0, 0]	n/a	0	0	0	n/a	n/a	0.0	0	0	0	catFR3	0	R1243T
799.012	1.6	819233	WORD	n/a	wordpools/wordpool.txt	FLUTE	Instruments	10	0	7	[0, 0, 0]	n/a	0	0	0	n/a	n/a	0.0	0	0	0	catFR3	0	R1243T
800.628	0.868	820849	WORD_OFF	n/a	n/a	FLUTE	n/a	10	0	7	[0, 0, 0]	n/a	0	0	0	n/a	n/a	0.0	0	0	0	catFR3	0	R1243T
801.496	1.6	821717	WORD	n/a	wordpools/wordpool.txt	SCOOTER	Vehicles	11	1	7	[0, 0, 0]	n/a	0	0	0	n/a	n/a	0.0	0	0	0	catFR3	0	R1243T
803.113	0.95	823334	WORD_OFF	n/a	n/a	SCOOTER	n/a	11	0	7	[0, 0, 0]	n/a	0	0	0	n/a	n/a	0.0	0	0	0	catFR3	0	R1243T
804.063	1.6	824284	WORD	n/a	wordpools/wordpool.txt	MOPED	Vehicles	12	1	7	[0, 0, 0]	n/a	0	0	0	n/a	n/a	0.0	0	0	0	catFR3	0	R1243T
805.679	0.0	825900	WORD_OFF	n/a	n/a	MOPED	n/a	12	0	7	[0, 0, 0]	n/a	0	0	0	n/a	n/a	0.0	0	0	0	catFR3	0	R1243T
805.679	0.06	825900	ENCODING_END	n/a	n/a	n/a	n/a	-999	0	7	[0, 0, 0]	n/a	0	0	0	n/a	n/a	0.0	0	0	0	catFR3	0	R1243T
805.739	0.0	825960	DISTRACT_START	n/a	n/a	n/a	n/a	-999	0	7	[0, 0, 0]	n/a	0	0	0	n/a	n/a	0.0	0	0	0	catFR3	0	R1243T
805.739	0.007	825960	START	n/a	n/a	n/a	n/a	-999	0	7	[-999, -999, -999]	n/a	0	0	0	n/a	n/a	0.0	0	0	0	catFR3	0	R1243T
805.746	3.834	825967	PROB	3.797	n/a	n/a	n/a	-999	0	7	[1, 5, 5]	11	0	0	0	n/a	n/a	0.0	0	0	0	catFR3	0	R1243T
809.58	3.468	829800	PROB	3.442	n/a	n/a	n/a	-999	0	7	[1, 3, 6]	10	0	0	0	n/a	n/a	0.0	0	0	0	catFR3	0	R1243T
813.048	3.817	833268	PROB	3.782	n/a	n/a	n/a	-999	0	7	[3, 2, 3]	8	0	0	0	n/a	n/a	0.0	0	0	0	catFR3	0	R1243T
816.865	3.634	837085	PROB	3.599	n/a	n/a	n/a	-999	0	7	[2, 2, 9]	13	0	0	0	n/a	n/a	0.0	0	0	0	catFR3	0	R1243T
820.499	4.067	840719	PROB	4.036	n/a	n/a	n/a	-999	0	7	[7, 4, 8]	19	0	0	0	n/a	n/a	0.0	0	0	0	catFR3	0	R1243T
824.566	3.64	844786	PROB	3.64	n/a	n/a	n/a	-999	0	7	[3, 5, 2]	10	0	0	0	n/a	n/a	0.0	0	0	0	catFR3	0	R1243T
828.206	0.011	848425	STOP	n/a	n/a	n/a	n/a	-999	0	7	[-999, -999, -999]	n/a	0	0	0	n/a	n/a	0.0	0	0	0	catFR3	0	R1243T
828.217	0.534	848436	DISTRACT_END	n/a	n/a	n/a	n/a	-999	0	7	[0, 0, 0]	n/a	0	0	0	n/a	n/a	0.0	0	0	0	catFR3	0	R1243T
828.751	0.5	848970	RETRIEVAL_ORIENT	n/a	n/a	n/a	n/a	-999	0	7	[0, 0, 0]	n/a	0	0	0	n/a	n/a	0.0	0	0	0	catFR3	0	R1243T
829.268	2.315	849487	REC_START	n/a	n/a	n/a	n/a	-999	0	7	[0, 0, 0]	n/a	0	0	0	n/a	n/a	0.0	0	0	0	catFR3	0	R1243T
831.583	0.61	851802	REC_WORD	2.315	n/a	PLANE	Vehicles	5	1	7	[0, 0, 0]	n/a	0	0	0	n/a	n/a	0.0	0	0	0	catFR3	0	R1243T
832.193	0.437	852412	REC_WORD	2.925	n/a	BUS	Vehicles	6	1	7	[0, 0, 0]	n/a	0	0	0	n/a	n/a	0.0	0	0	0	catFR3	0	R1243T
832.63	3.274	852849	REC_WORD	3.362	n/a	SCOOTER	Vehicles	11	1	7	[0, 0, 0]	n/a	0	0	0	n/a	n/a	0.0	0	0	0	catFR3	0	R1243T
835.904	3.356	856123	REC_WORD	6.636	n/a	MOPED	Vehicles	12	1	7	[0, 0, 0]	n/a	0	0	0	n/a	n/a	0.0	0	0	0	catFR3	0	R1243T
839.26	1.302	859479	REC_WORD	9.992	n/a	HEN	FarmAnimals	3	1	7	[0, 0, 0]	n/a	0	0	0	n/a	n/a	0.0	0	0	0	catFR3	0	R1243T
840.562	1.266	860781	REC_WORD	11.294	n/a	ROASTER	n/a	-999	0	7	[0, 0, 0]	n/a	0	0	0	n/a	n/a	0.0	0	0	0	catFR3	0	R1243T
841.828	17.453	862047	REC_WORD	12.56	n/a	COW	FarmAnimals	7	1	7	[0, 0, 0]	n/a	0	0	0	n/a	n/a	0.0	0	0	0	catFR3	0	R1243T
859.281	4.443	879498	REC_END	n/a	n/a	n/a	n/a	-999	0	7	[0, 0, 0]	n/a	0	0	0	n/a	n/a	0.0	0	0	0	catFR3	0	R1243T
863.724	0.5	883941	TRIAL	n/a	n/a	n/a	n/a	-999	0	8	[0, 0, 0]	n/a	0	1	0	n/a	n/a	0.0	0	0	0	catFR3	0	R1243T
864.224	10.0	884441	COUNTDOWN_START	n/a	n/a	n/a	n/a	-999	0	8	[0, 0, 0]	n/a	0	1	0	n/a	n/a	0.0	0	0	0	catFR3	0	R1243T
874.652	0.006	894868	COUNTDOWN_END	n/a	n/a	n/a	n/a	-999	0	8	[0, 0, 0]	n/a	0	1	0	n/a	n/a	0.0	0	0	0	catFR3	0	R1243T
874.658	1.6	894874	ORIENT	n/a	n/a	n/a	n/a	-999	0	8	[0, 0, 0]	n/a	0	1	0	n/a	n/a	0.0	0	0	0	catFR3	0	R1243T
876.276	1.867	896492	ORIENT_OFF	n/a	n/a	n/a	n/a	-999	0	8	[0, 0, 0]	n/a	0	1	0	n/a	n/a	0.0	0	0	0	catFR3	0	R1243T
878.143	1.6	898359	WORD	n/a	wordpools/wordpool.txt	BALL	Toys	1	0	8	[0, 0, 0]	n/a	0	1	0	n/a	n/a	0.0	0	0	0	catFR3	0	R1243T
878.312	0.5	898528	STIM_ON	n/a	n/a	BALL	n/a	1	0	8	[0, 0, 0]	n/a	1	1	500	LB8	LB9	750.0	100	50	300	catFR3	0	R1243T
878.802	0.958	899018	STIM_OFF	n/a	n/a	n/a	n/a	1	0	8	[0, 0, 0]	n/a	0	1	500	LB8	LB9	750.0	100	50	300	catFR3	0	R1243T
879.76	1.017	899976	WORD_OFF	n/a	n/a	BALL	n/a	1	0	8	[0, 0, 0]	n/a	0	1	0	n/a	n/a	0.0	0	0	0	catFR3	0	R1243T
880.777	1.6	900993	WORD	n/a	wordpools/wordpool.txt	BLOCKS	Toys	2	0	8	[0, 0, 0]	n/a	0	1	0	n/a	n/a	0.0	0	0	0	catFR3	0	R1243T
882.394	0.95	902610	WORD_OFF	n/a	n/a	BLOCKS	n/a	2	0	8	[0, 0, 0]	n/a	0	1	0	n/a	n/a	0.0	0	0	0	catFR3	0	R1243T
883.344	1.6	903560	WORD	n/a	wordpools/wordpool.txt	HAWK	Birds	3	0	8	[0, 0, 0]	n/a	0	1	0	n/a	n/a	0.0	0	0	0	catFR3	0	R1243T
884.961	0.9	905177	WORD_OFF	n/a	n/a	HAWK	n/a	3	0	8	[0, 0, 0]	n/a	0	1	0	n/a	n/a	0.0	0	0	0	catFR3	0	R1243T
885.861	1.6	906077	WORD	n/a	wordpools/wordpool.txt	CARDINAL	Birds	4	0	8	[0, 0, 0]	n/a	0	1	0	n/a	n/a	0.0	0	0	0	catFR3	0	R1243T
887.478	0.85	907694	WORD_OFF	n/a	n/a	CARDINAL	n/a	4	0	8	[0, 0, 0]	n/a	0	1	0	n/a	n/a	0.0	0	0	0	catFR3	0	R1243T
888.328	1.6	908544	WORD	n/a	wordpools/wordpool.txt	ANT	Insects	5	0	8	[0, 0, 0]	n/a	0	1	0	n/a	n/a	0.0	0	0	0	catFR3	0	R1243T
888.494	0.5	908710	STIM_ON	n/a	n/a	ANT	n/a	5	0	8	[0, 0, 0]	n/a	1	1	500	LB8	LB9	750.0	100	50	300	catFR3	0	R1243T
888.984	0.961	909200	STIM_OFF	n/a	n/a	n/a	n/a	5	0	8	[0, 0, 0]	n/a	0	1	500	LB8	LB9	750.0	100	50	300	catFR3	0	R1243T
889.945	0.917	910161	WORD_OFF	n/a	n/a	ANT	n/a	5	0	8	[0, 0, 0]	n/a	0	1	0	n/a	n/a	0.0	0	0	0	catFR3	0	R1243T
890.862	1.6	911077	WORD	n/a	wordpools/wordpool.txt	GNAT	Insects	6	0	8	[0, 0, 0]	n/a	0	1	0	n/a	n/a	0.0	0	0	0	catFR3	0	R1243T
891.03	0.5	911245	STIM_ON	n/a	n/a	GNAT	n/a	6	0	8	[0, 0, 0]	n/a	1	1	500	LB8	LB9	750.0	100	50	300	catFR3	0	R1243T
891.52	0.959	911735	STIM_OFF	n/a	n/a	n/a	n/a	6	0	8	[0, 0, 0]	n/a	0	1	500	LB8	LB9	750.0	100	50	300	catFR3	0	R1243T
892.479	0.767	912694	WORD_OFF	n/a	n/a	GNAT	n/a	6	0	8	[0, 0, 0]	n/a	0	1	0	n/a	n/a	0.0	0	0	0	catFR3	0	R1243T
893.246	1.6	913461	WORD	n/a	wordpools/wordpool.txt	FRISBEE	Toys	7	0	8	[0, 0, 0]	n/a	0	1	0	n/a	n/a	0.0	0	0	0	catFR3	0	R1243T
894.863	0.782	915078	WORD_OFF	n/a	n/a	FRISBEE	n/a	7	0	8	[0, 0, 0]	n/a	0	1	0	n/a	n/a	0.0	0	0	0	catFR3	0	R1243T
895.645	1.6	915860	WORD	n/a	wordpools/wordpool.txt	PUZZLE	Toys	8	0	8	[0, 0, 0]	n/a	0	1	0	n/a	n/a	0.0	0	0	0	catFR3	0	R1243T
895.811	0.5	916026	STIM_ON	n/a	n/a	PUZZLE	n/a	8	0	8	[0, 0, 0]	n/a	1	1	500	LB8	LB9	750.0	100	50	300	catFR3	0	R1243T
896.301	0.962	916516	STIM_OFF	n/a	n/a	n/a	n/a	8	0	8	[0, 0, 0]	n/a	0	1	500	LB8	LB9	750.0	100	50	300	catFR3	0	R1243T
897.263	0.867	917478	WORD_OFF	n/a	n/a	PUZZLE	n/a	8	0	8	[0, 0, 0]	n/a	0	1	0	n/a	n/a	0.0	0	0	0	catFR3	0	R1243T
898.13	1.6	918345	WORD	n/a	wordpools/wordpool.txt	DUCK	Birds	9	0	8	[0, 0, 0]	n/a	0	1	0	n/a	n/a	0.0	0	0	0	catFR3	0	R1243T
899.747	0.967	919962	WORD_OFF	n/a	n/a	DUCK	n/a	9	0	8	[0, 0, 0]	n/a	0	1	0	n/a	n/a	0.0	0	0	0	catFR3	0	R1243T
900.714	1.6	920929	WORD	n/a	wordpools/wordpool.txt	BLUEBIRD	Birds	10	0	8	[0, 0, 0]	n/a	0	1	0	n/a	n/a	0.0	0	0	0	catFR3	0	R1243T
900.884	0.5	921099	STIM_ON	n/a	n/a	BLUEBIRD	n/a	10	0	8	[0, 0, 0]	n/a	1	1	500	LB8	LB9	750.0	100	50	300	catFR3	0	R1243T
901.374	0.957	921589	STIM_OFF	n/a	n/a	n/a	n/a	10	0	8	[0, 0, 0]	n/a	0	1	500	LB8	LB9	750.0	100	50	300	catFR3	0	R1243T
902.331	0.983	922546	WORD_OFF	n/a	n/a	BLUEBIRD	n/a	10	0	8	[0, 0, 0]	n/a	0	1	0	n/a	n/a	0.0	0	0	0	catFR3	0	R1243T
903.314	1.6	923529	WORD	n/a	wordpools/wordpool.txt	CRICKET	Insects	11	0	8	[0, 0, 0]	n/a	0	1	0	n/a	n/a	0.0	0	0	0	catFR3	0	R1243T
904.931	0.934	925146	WORD_OFF	n/a	n/a	CRICKET	n/a	11	0	8	[0, 0, 0]	n/a	0	1	0	n/a	n/a	0.0	0	0	0	catFR3	0	R1243T
905.865	1.6	926080	WORD	n/a	wordpools/wordpool.txt	LADYBUG	Insects	12	0	8	[0, 0, 0]	n/a	0	1	0	n/a	n/a	0.0	0	0	0	catFR3	0	R1243T
907.482	0.0	927696	ENCODING_END	n/a	n/a	n/a	n/a	-999	0	8	[0, 0, 0]	n/a	0	1	0	n/a	n/a	0.0	0	0	0	catFR3	0	R1243T
907.482	0.057	927696	WORD_OFF	n/a	n/a	LADYBUG	n/a	12	0	8	[0, 0, 0]	n/a	0	1	0	n/a	n/a	0.0	0	0	0	catFR3	0	R1243T
907.539	0.0	927753	DISTRACT_START	n/a	n/a	n/a	n/a	-999	0	8	[0, 0, 0]	n/a	0	1	0	n/a	n/a	0.0	0	0	0	catFR3	0	R1243T
907.539	0.008	927753	START	n/a	n/a	n/a	n/a	-999	0	8	[-999, -999, -999]	n/a	0	1	0	n/a	n/a	0.0	0	0	0	catFR3	0	R1243T
907.547	5.436	927761	PROB	5.412	n/a	n/a	n/a	-999	0	8	[9, 1, 9]	19	0	1	0	n/a	n/a	0.0	0	0	0	catFR3	0	R1243T
912.983	2.95	933197	PROB	2.913	n/a	n/a	n/a	-999	0	8	[6, 1, 1]	8	0	1	0	n/a	n/a	0.0	0	0	0	catFR3	0	R1243T
915.933	4.334	936147	PROB	4.307	n/a	n/a	n/a	-999	0	8	[5, 6, 3]	14	0	1	0	n/a	n/a	0.0	0	0	0	catFR3	0	R1243T
920.267	7.274	940481	PROB	7.274	n/a	n/a	n/a	-999	0	8	[9, 9, 8]	26	0	1	0	n/a	n/a	0.0	0	0	0	catFR3	0	R1243T
927.541	0.01	947754	STOP	n/a	n/a	n/a	n/a	-999	0	8	[-999, -999, -999]	n/a	0	1	0	n/a	n/a	0.0	0	0	0	catFR3	0	R1243T
927.551	0.585	947764	DISTRACT_END	n/a	n/a	n/a	n/a	-999	0	8	[0, 0, 0]	n/a	0	1	0	n/a	n/a	0.0	0	0	0	catFR3	0	R1243T
928.136	0.5	948349	RETRIEVAL_ORIENT	n/a	n/a	n/a	n/a	-999	0	8	[0, 0, 0]	n/a	0	1	0	n/a	n/a	0.0	0	0	0	catFR3	0	R1243T
928.652	3.855	948865	REC_START	n/a	n/a	n/a	n/a	-999	0	8	[0, 0, 0]	n/a	0	1	0	n/a	n/a	0.0	0	0	0	catFR3	0	R1243T
932.507	26.155	952720	REC_WORD_VV	3.855	n/a	<>	n/a	-999	0	8	[0, 0, 0]	n/a	0	1	0	n/a	n/a	0.0	0	0	0	catFR3	0	R1243T
958.662	4.597	978873	REC_END	n/a	n/a	n/a	n/a	-999	0	8	[0, 0, 0]	n/a	0	1	0	n/a	n/a	0.0	0	0	0	catFR3	0	R1243T
963.259	0.5	983470	TRIAL	n/a	n/a	n/a	n/a	-999	0	9	[0, 0, 0]	n/a	0	1	0	n/a	n/a	0.0	0	0	0	catFR3	0	R1243T
963.759	10.0	983970	COUNTDOWN_START	n/a	n/a	n/a	n/a	-999	0	9	[0, 0, 0]	n/a	0	1	0	n/a	n/a	0.0	0	0	0	catFR3	0	R1243T
974.187	0.007	994397	COUNTDOWN_END	n/a	n/a	n/a	n/a	-999	0	9	[0, 0, 0]	n/a	0	1	0	n/a	n/a	0.0	0	0	0	catFR3	0	R1243T
974.194	1.6	994404	ORIENT	n/a	n/a	n/a	n/a	-999	0	9	[0, 0, 0]	n/a	0	1	0	n/a	n/a	0.0	0	0	0	catFR3	0	R1243T
975.811	2.267	996021	ORIENT_OFF	n/a	n/a	n/a	n/a	-999	0	9	[0, 0, 0]	n/a	0	1	0	n/a	n/a	0.0	0	0	0	catFR3	0	R1243T
978.078	1.6	998288	WORD	n/a	wordpools/wordpool.txt	APPLE	Fruit	1	0	9	[0, 0, 0]	n/a	0	1	0	n/a	n/a	0.0	0	0	0	catFR3	0	R1243T
979.695	0.949	999905	WORD_OFF	n/a	n/a	APPLE	n/a	1	0	9	[0, 0, 0]	n/a	0	1	0	n/a	n/a	0.0	0	0	0	catFR3	0	R1243T
980.644	1.6	1000854	WORD	n/a	wordpools/wordpool.txt	STRAWBERRY	Fruit	2	1	9	[0, 0, 0]	n/a	0	1	0	n/a	n/a	0.0	0	0	0	catFR3	0	R1243T
982.262	0.917	1002472	WORD_OFF	n/a	n/a	STRAWBERRY	n/a	2	0	9	[0, 0, 0]	n/a	0	1	0	n/a	n/a	0.0	0	0	0	catFR3	0	R1243T
983.179	1.6	1003389	WORD	n/a	wordpools/wordpool.txt	REFRIGERATOR	Appliances	3	1	9	[0, 0, 0]	n/a	0	1	0	n/a	n/a	0.0	0	0	0	catFR3	0	R1243T
983.349	0.5	1003559	STIM_ON	n/a	n/a	REFRIGERATOR	n/a	3	1	9	[0, 0, 0]	n/a	1	1	500	LB8	LB9	750.0	100	50	300	catFR3	0	R1243T
983.839	0.957	1004049	STIM_OFF	n/a	n/a	n/a	n/a	3	0	9	[0, 0, 0]	n/a	0	1	500	LB8	LB9	750.0	100	50	300	catFR3	0	R1243T
984.796	0.983	1005006	WORD_OFF	n/a	n/a	REFRIGERATOR	n/a	3	0	9	[0, 0, 0]	n/a	0	1	0	n/a	n/a	0.0	0	0	0	catFR3	0	R1243T
985.779	1.6	1005989	WORD	n/a	wordpools/wordpool.txt	WASHER	Appliances	4	1	9	[0, 0, 0]	n/a	0	1	0	n/a	n/a	0.0	0	0	0	catFR3	0	R1243T
987.396	0.884	1007606	WORD_OFF	n/a	n/a	WASHER	n/a	4	0	9	[0, 0, 0]	n/a	0	1	0	n/a	n/a	0.0	0	0	0	catFR3	0	R1243T
988.28	1.6	1008490	WORD	n/a	wordpools/wordpool.txt	TRUMPET	Instruments	5	1	9	[0, 0, 0]	n/a	0	1	0	n/a	n/a	0.0	0	0	0	catFR3	0	R1243T
989.897	0.9	1010106	WORD_OFF	n/a	n/a	TRUMPET	n/a	5	0	9	[0, 0, 0]	n/a	0	1	0	n/a	n/a	0.0	0	0	0	catFR3	0	R1243T
990.797	1.6	1011006	WORD	n/a	wordpools/wordpool.txt	CELLO	Instruments	6	0	9	[0, 0, 0]	n/a	0	1	0	n/a	n/a	0.0	0	0	0	catFR3	0	R1243T
992.414	0.967	1012623	WORD_OFF	n/a	n/a	CELLO	n/a	6	0	9	[0, 0, 0]	n/a	0	1	0	n/a	n/a	0.0	0	0	0	catFR3	0	R1243T
993.381	1.6	1013590	WORD	n/a	wordpools/wordpool.txt	BLUEBERRY	Fruit	7	0	9	[0, 0, 0]	n/a	0	1	0	n/a	n/a	0.0	0	0	0	catFR3	0	R1243T
993.558	0.5	1013767	STIM_ON	n/a	n/a	BLUEBERRY	n/a	7	0	9	[0, 0, 0]	n/a	1	1	500	LB8	LB9	750.0	100	50	300	catFR3	0	R1243T
994.048	0.95	1014257	STIM_OFF	n/a	n/a	n/a	n/a	7	0	9	[0, 0, 0]	n/a	0	1	500	LB8	LB9	750.0	100	50	300	catFR3	0	R1243T
994.998	0.933	1015207	WORD_OFF	n/a	n/a	BLUEBERRY	n/a	7	0	9	[0, 0, 0]	n/a	0	1	0	n/a	n/a	0.0	0	0	0	catFR3	0	R1243T
995.931	1.6	1016140	WORD	n/a	wordpools/wordpool.txt	ORANGE	Fruit	8	1	9	[0, 0, 0]	n/a	0	1	0	n/a	n/a	0.0	0	0	0	catFR3	0	R1243T
997.547	0.901	1017756	WORD_OFF	n/a	n/a	ORANGE	n/a	8	0	9	[0, 0, 0]	n/a	0	1	0	n/a	n/a	0.0	0	0	0	catFR3	0	R1243T
998.448	1.6	1018657	WORD	n/a	wordpools/wordpool.txt	DRYER	Appliances	9	1	9	[0, 0, 0]	n/a	0	1	0	n/a	n/a	0.0	0	0	0	catFR3	0	R1243T
1000.065	0.917	1020274	WORD_OFF	n/a	n/a	DRYER	n/a	9	0	9	[0, 0, 0]	n/a	0	1	0	n/a	n/a	0.0	0	0	0	catFR3	0	R1243T
1000.982	1.6	1021191	WORD	n/a	wordpools/wordpool.txt	MIXER	Appliances	10	0	9	[0, 0, 0]	n/a	0	1	0	n/a	n/a	0.0	0	0	0	catFR3	0	R1243T
1002.598	0.868	1022807	WORD_OFF	n/a	n/a	MIXER	n/a	10	0	9	[0, 0, 0]	n/a	0	1	0	n/a	n/a	0.0	0	0	0	catFR3	0	R1243T
1003.466	1.6	1023675	WORD	n/a	wordpools/wordpool.txt	VIOLIN	Instruments	11	0	9	[0, 0, 0]	n/a	0	1	0	n/a	n/a	0.0	0	0	0	catFR3	0	R1243T
1005.083	0.966	1025291	WORD_OFF	n/a	n/a	VIOLIN	n/a	11	0	9	[0, 0, 0]	n/a	0	1	0	n/a	n/a	0.0	0	0	0	catFR3	0	R1243T
1006.049	1.6	1026257	WORD	n/a	wordpools/wordpool.txt	TROMBONE	Instruments	12	0	9	[0, 0, 0]	n/a	0	1	0	n/a	n/a	0.0	0	0	0	catFR3	0	R1243T
1006.226	0.5	1026434	STIM_ON	n/a	n/a	n/a	n/a	11	0	9	[0, 0, 0]	n/a	1	1	500	LB8	LB9	750.0	100	50	300	catFR3	0	R1243T
1006.716	0.95	1026924	STIM_OFF	n/a	n/a	n/a	n/a	11	0	9	[0, 0, 0]	n/a	0	1	500	LB8	LB9	750.0	100	50	300	catFR3	0	R1243T
1007.666	0.0	1027874	WORD_OFF	n/a	n/a	TROMBONE	n/a	12	0	9	[0, 0, 0]	n/a	0	1	0	n/a	n/a	0.0	0	0	0	catFR3	0	R1243T
1007.666	0.057	1027874	ENCODING_END	n/a	n/a	n/a	n/a	-999	0	9	[0, 0, 0]	n/a	0	1	0	n/a	n/a	0.0	0	0	0	catFR3	0	R1243T
1007.723	0.0	1027931	DISTRACT_START	n/a	n/a	n/a	n/a	-999	0	9	[0, 0, 0]	n/a	0	1	0	n/a	n/a	0.0	0	0	0	catFR3	0	R1243T
1007.723	0.01	1027931	START	n/a	n/a	n/a	n/a	-999	0	9	[-999, -999, -999]	n/a	0	1	0	n/a	n/a	0.0	0	0	0	catFR3	0	R1243T
1007.733	4.168	1027941	PROB	4.129	n/a	n/a	n/a	-999	0	9	[9, 4, 2]	15	0	1	0	n/a	n/a	0.0	0	0	0	catFR3	0	R1243T
1011.901	3.034	1032109	PROB	3.003	n/a	n/a	n/a	-999	0	9	[5, 5, 6]	16	0	1	0	n/a	n/a	0.0	0	0	0	catFR3	0	R1243T
1014.935	3.649	1035143	PROB	3.624	n/a	n/a	n/a	-999	0	9	[4, 8, 7]	19	0	1	0	n/a	n/a	0.0	0	0	0	catFR3	0	R1243T
1018.584	7.569	1038792	PROB	7.534	n/a	n/a	n/a	-999	0	9	[6, 4, 3]	11	0	1	0	n/a	n/a	0.0	0	0	0	catFR3	0	R1243T
1026.153	7.814	1046360	PROB	7.814	n/a	n/a	n/a	-999	0	9	[7, 5, 2]	14	0	1	0	n/a	n/a	0.0	0	0	0	catFR3	0	R1243T
1033.967	0.021	1054174	STOP	n/a	n/a	n/a	n/a	-999	0	9	[-999, -999, -999]	n/a	0	1	0	n/a	n/a	0.0	0	0	0	catFR3	0	R1243T
1033.988	0.616	1054195	DISTRACT_END	n/a	n/a	n/a	n/a	-999	0	9	[0, 0, 0]	n/a	0	1	0	n/a	n/a	0.0	0	0	0	catFR3	0	R1243T
1034.604	0.5	1054811	RETRIEVAL_ORIENT	n/a	n/a	n/a	n/a	-999	0	9	[0, 0, 0]	n/a	0	1	0	n/a	n/a	0.0	0	0	0	catFR3	0	R1243T
1035.122	1.858	1055329	REC_START	n/a	n/a	n/a	n/a	-999	0	9	[0, 0, 0]	n/a	0	1	0	n/a	n/a	0.0	0	0	0	catFR3	0	R1243T
1036.98	1.402	1057187	REC_WORD	1.858	n/a	WASHER	Appliances	4	1	9	[0, 0, 0]	n/a	0	1	0	n/a	n/a	0.0	0	0	0	catFR3	0	R1243T
1038.382	1.619	1058588	REC_WORD	3.26	n/a	DRYER	Appliances	9	1	9	[0, 0, 0]	n/a	0	1	0	n/a	n/a	0.0	0	0	0	catFR3	0	R1243T
1040.001	1.709	1060207	REC_WORD	4.879	n/a	STRAWBERRY	Fruit	2	1	9	[0, 0, 0]	n/a	0	1	0	n/a	n/a	0.0	0	0	0	catFR3	0	R1243T
1041.71	1.267	1061916	REC_WORD	6.588	n/a	ORANGE	Fruit	8	1	9	[0, 0, 0]	n/a	0	1	0	n/a	n/a	0.0	0	0	0	catFR3	0	R1243T
1042.977	6.887	1063183	REC_WORD	7.855	n/a	REFRIGERATOR	Appliances	3	1	9	[0, 0, 0]	n/a	0	1	0	n/a	n/a	0.0	0	0	0	catFR3	0	R1243T
1049.864	15.269	1070070	REC_WORD	14.742	n/a	TRUMPET	Instruments	5	1	9	[0, 0, 0]	n/a	0	1	0	n/a	n/a	0.0	0	0	0	catFR3	0	R1243T
1065.133	4.395	1085338	REC_END	n/a	n/a	n/a	n/a	-999	0	9	[0, 0, 0]	n/a	0	1	0	n/a	n/a	0.0	0	0	0	catFR3	0	R1243T
1069.528	0.5	1089733	TRIAL	n/a	n/a	n/a	n/a	-999	0	10	[0, 0, 0]	n/a	0	0	0	n/a	n/a	0.0	0	0	0	catFR3	0	R1243T
1070.028	10.0	1090232	COUNTDOWN_START	n/a	n/a	n/a	n/a	-999	0	10	[0, 0, 0]	n/a	0	0	0	n/a	n/a	0.0	0	0	0	catFR3	0	R1243T
1080.456	0.007	1100660	COUNTDOWN_END	n/a	n/a	n/a	n/a	-999	0	10	[0, 0, 0]	n/a	0	0	0	n/a	n/a	0.0	0	0	0	catFR3	0	R1243T
1080.463	1.6	1100667	ORIENT	n/a	n/a	n/a	n/a	-999	0	10	[0, 0, 0]	n/a	0	0	0	n/a	n/a	0.0	0	0	0	catFR3	0	R1243T
1082.08	2.234	1102284	ORIENT_OFF	n/a	n/a	n/a	n/a	-999	0	10	[0, 0, 0]	n/a	0	0	0	n/a	n/a	0.0	0	0	0	catFR3	0	R1243T
1084.314	1.6	1104518	WORD	n/a	wordpools/wordpool.txt	CREEK	Landscapes	1	1	10	[0, 0, 0]	n/a	0	0	0	n/a	n/a	0.0	0	0	0	catFR3	0	R1243T
1085.931	1.017	1106135	WORD_OFF	n/a	n/a	CREEK	n/a	1	0	10	[0, 0, 0]	n/a	0	0	0	n/a	n/a	0.0	0	0	0	catFR3	0	R1243T
1086.948	1.6	1107151	WORD	n/a	wordpools/wordpool.txt	STREAM	Landscapes	2	1	10	[0, 0, 0]	n/a	0	0	0	n/a	n/a	0.0	0	0	0	catFR3	0	R1243T
1088.564	1.0	1108767	WORD_OFF	n/a	n/a	STREAM	n/a	2	0	10	[0, 0, 0]	n/a	0	0	0	n/a	n/a	0.0	0	0	0	catFR3	0	R1243T
1089.564	1.6	1109767	WORD	n/a	wordpools/wordpool.txt	SHRIMP	OceanAnimals	3	1	10	[0, 0, 0]	n/a	0	0	0	n/a	n/a	0.0	0	0	0	catFR3	0	R1243T
1091.182	0.85	1111385	WORD_OFF	n/a	n/a	SHRIMP	n/a	3	0	10	[0, 0, 0]	n/a	0	0	0	n/a	n/a	0.0	0	0	0	catFR3	0	R1243T
1092.032	1.6	1112235	WORD	n/a	wordpools/wordpool.txt	OCTOPUS	OceanAnimals	4	1	10	[0, 0, 0]	n/a	0	0	0	n/a	n/a	0.0	0	0	0	catFR3	0	R1243T
1093.648	0.868	1113851	WORD_OFF	n/a	n/a	OCTOPUS	n/a	4	0	10	[0, 0, 0]	n/a	0	0	0	n/a	n/a	0.0	0	0	0	catFR3	0	R1243T
1094.516	1.6	1114719	WORD	n/a	wordpools/wordpool.txt	SEAGULL	Birds	5	0	10	[0, 0, 0]	n/a	0	0	0	n/a	n/a	0.0	0	0	0	catFR3	0	R1243T
1096.133	0.783	1116336	WORD_OFF	n/a	n/a	SEAGULL	n/a	5	0	10	[0, 0, 0]	n/a	0	0	0	n/a	n/a	0.0	0	0	0	catFR3	0	R1243T
1096.916	1.6	1117119	WORD	n/a	wordpools/wordpool.txt	SPARROW	Birds	6	0	10	[0, 0, 0]	n/a	0	0	0	n/a	n/a	0.0	0	0	0	catFR3	0	R1243T
1098.533	0.834	1118736	WORD_OFF	n/a	n/a	SPARROW	n/a	6	0	10	[0, 0, 0]	n/a	0	0	0	n/a	n/a	0.0	0	0	0	catFR3	0	R1243T
1099.367	1.6	1119570	WORD	n/a	wordpools/wordpool.txt	WOODS	Landscapes	7	0	10	[0, 0, 0]	n/a	0	0	0	n/a	n/a	0.0	0	0	0	catFR3	0	R1243T
1100.984	0.883	1121187	WORD_OFF	n/a	n/a	WOODS	n/a	7	0	10	[0, 0, 0]	n/a	0	0	0	n/a	n/a	0.0	0	0	0	catFR3	0	R1243T
1101.867	1.6	1122070	WORD	n/a	wordpools/wordpool.txt	VALLEY	Landscapes	8	0	10	[0, 0, 0]	n/a	0	0	0	n/a	n/a	0.0	0	0	0	catFR3	0	R1243T
1103.484	0.934	1123686	WORD_OFF	n/a	n/a	VALLEY	n/a	8	0	10	[0, 0, 0]	n/a	0	0	0	n/a	n/a	0.0	0	0	0	catFR3	0	R1243T
1104.418	1.6	1124620	WORD	n/a	wordpools/wordpool.txt	JELLYFISH	OceanAnimals	9	1	10	[0, 0, 0]	n/a	0	0	0	n/a	n/a	0.0	0	0	0	catFR3	0	R1243T
1106.035	0.966	1126237	WORD_OFF	n/a	n/a	JELLYFISH	n/a	9	0	10	[0, 0, 0]	n/a	0	0	0	n/a	n/a	0.0	0	0	0	catFR3	0	R1243T
1107.001	1.6	1127203	WORD	n/a	wordpools/wordpool.txt	CRAB	OceanAnimals	10	0	10	[0, 0, 0]	n/a	0	0	0	n/a	n/a	0.0	0	0	0	catFR3	0	R1243T
1108.617	0.934	1128819	WORD_OFF	n/a	n/a	CRAB	n/a	10	0	10	[0, 0, 0]	n/a	0	0	0	n/a	n/a	0.0	0	0	0	catFR3	0	R1243T
1109.551	1.6	1129753	WORD	n/a	wordpools/wordpool.txt	DOVE	Birds	11	0	10	[0, 0, 0]	n/a	0	0	0	n/a	n/a	0.0	0	0	0	catFR3	0	R1243T
1111.169	0.783	1131371	WORD_OFF	n/a	n/a	DOVE	n/a	11	0	10	[0, 0, 0]	n/a	0	0	0	n/a	n/a	0.0	0	0	0	catFR3	0	R1243T
1111.952	1.6	1132154	WORD	n/a	wordpools/wordpool.txt	PIGEON	Birds	12	0	10	[0, 0, 0]	n/a	0	0	0	n/a	n/a	0.0	0	0	0	catFR3	0	R1243T
1113.568	0.001	1133770	WORD_OFF	n/a	n/a	PIGEON	n/a	12	0	10	[0, 0, 0]	n/a	0	0	0	n/a	n/a	0.0	0	0	0	catFR3	0	R1243T
1113.569	0.056	1133771	ENCODING_END	n/a	n/a	n/a	n/a	-999	0	10	[0, 0, 0]	n/a	0	0	0	n/a	n/a	0.0	0	0	0	catFR3	0	R1243T
1113.625	0.0	1133827	DISTRACT_START	n/a	n/a	n/a	n/a	-999	0	10	[0, 0, 0]	n/a	0	0	0	n/a	n/a	0.0	0	0	0	catFR3	0	R1243T
1113.625	0.01	1133827	START	n/a	n/a	n/a	n/a	-999	0	10	[-999, -999, -999]	n/a	0	0	0	n/a	n/a	0.0	0	0	0	catFR3	0	R1243T
1113.635	4.752	1133837	PROB	4.724	n/a	n/a	n/a	-999	0	10	[6, 9, 2]	17	0	0	0	n/a	n/a	0.0	0	0	0	catFR3	0	R1243T
1118.387	3.283	1138589	PROB	3.258	n/a	n/a	n/a	-999	0	10	[1, 7, 8]	16	0	0	0	n/a	n/a	0.0	0	0	0	catFR3	0	R1243T
1121.67	3.651	1141871	PROB	3.624	n/a	n/a	n/a	-999	0	10	[2, 5, 2]	9	0	0	0	n/a	n/a	0.0	0	0	0	catFR3	0	R1243T
1125.321	3.801	1145522	PROB	3.767	n/a	n/a	n/a	-999	0	10	[9, 9, 3]	21	0	0	0	n/a	n/a	0.0	0	0	0	catFR3	0	R1243T
1129.122	2.9	1149323	PROB	2.877	n/a	n/a	n/a	-999	0	10	[4, 6, 2]	12	0	0	0	n/a	n/a	0.0	0	0	0	catFR3	0	R1243T
1132.022	3.05	1152223	PROB	3.05	n/a	n/a	n/a	-999	0	10	[1, 3, 7]	11	0	0	0	n/a	n/a	0.0	0	0	0	catFR3	0	R1243T
1135.072	0.018	1155272	STOP	n/a	n/a	n/a	n/a	-999	0	10	[-999, -999, -999]	n/a	0	0	0	n/a	n/a	0.0	0	0	0	catFR3	0	R1243T
1135.09	0.65	1155290	DISTRACT_END	n/a	n/a	n/a	n/a	-999	0	10	[0, 0, 0]	n/a	0	0	0	n/a	n/a	0.0	0	0	0	catFR3	0	R1243T
1135.74	0.5	1155940	RETRIEVAL_ORIENT	n/a	n/a	n/a	n/a	-999	0	10	[0, 0, 0]	n/a	0	0	0	n/a	n/a	0.0	0	0	0	catFR3	0	R1243T
1136.257	2.056	1156457	REC_START	n/a	n/a	n/a	n/a	-999	0	10	[0, 0, 0]	n/a	0	0	0	n/a	n/a	0.0	0	0	0	catFR3	0	R1243T
1138.313	1.156	1158513	REC_WORD	2.056	n/a	OCTOPUS	OceanAnimals	4	1	10	[0, 0, 0]	n/a	0	0	0	n/a	n/a	0.0	0	0	0	catFR3	0	R1243T
1139.469	1.304	1159669	REC_WORD	3.212	n/a	SQUID	n/a	-999	0	10	[0, 0, 0]	n/a	0	0	0	n/a	n/a	0.0	0	0	0	catFR3	0	R1243T
1140.773	1.424	1160973	REC_WORD	4.516	n/a	JELLYFISH	OceanAnimals	9	1	10	[0, 0, 0]	n/a	0	0	0	n/a	n/a	0.0	0	0	0	catFR3	0	R1243T
1142.197	1.389	1162397	REC_WORD	5.94	n/a	SHRIMP	OceanAnimals	3	1	10	[0, 0, 0]	n/a	0	0	0	n/a	n/a	0.0	0	0	0	catFR3	0	R1243T
1143.586	1.345	1163786	REC_WORD	7.329	n/a	CREEK	Landscapes	1	1	10	[0, 0, 0]	n/a	0	0	0	n/a	n/a	0.0	0	0	0	catFR3	0	R1243T
1144.931	13.737	1165131	REC_WORD	8.674	n/a	STREAM	Landscapes	2	1	10	[0, 0, 0]	n/a	0	0	0	n/a	n/a	0.0	0	0	0	catFR3	0	R1243T
1158.668	7.6	1178867	REC_WORD	22.411	n/a	FISH	n/a	-999	0	10	[0, 0, 0]	n/a	0	0	0	n/a	n/a	0.0	0	0	0	catFR3	0	R1243T
1166.268	5.229	1186467	REC_END	n/a	n/a	n/a	n/a	-999	0	10	[0, 0, 0]	n/a	0	0	0	n/a	n/a	0.0	0	0	0	catFR3	0	R1243T
1171.497	0.5	1191695	TRIAL	n/a	n/a	n/a	n/a	-999	0	11	[0, 0, 0]	n/a	0	0	0	n/a	n/a	0.0	0	0	0	catFR3	0	R1243T
1171.997	10.0	1192195	COUNTDOWN_START	n/a	n/a	n/a	n/a	-999	0	11	[0, 0, 0]	n/a	0	0	0	n/a	n/a	0.0	0	0	0	catFR3	0	R1243T
1182.425	0.007	1202623	COUNTDOWN_END	n/a	n/a	n/a	n/a	-999	0	11	[0, 0, 0]	n/a	0	0	0	n/a	n/a	0.0	0	0	0	catFR3	0	R1243T
1182.432	1.6	1202630	ORIENT	n/a	n/a	n/a	n/a	-999	0	11	[0, 0, 0]	n/a	0	0	0	n/a	n/a	0.0	0	0	0	catFR3	0	R1243T
1184.049	2.017	1204246	ORIENT_OFF	n/a	n/a	n/a	n/a	-999	0	11	[0, 0, 0]	n/a	0	0	0	n/a	n/a	0.0	0	0	0	catFR3	0	R1243T
1186.066	1.6	1206263	WORD	n/a	wordpools/wordpool.txt	GUITAR	Instruments	1	0	11	[0, 0, 0]	n/a	0	0	0	n/a	n/a	0.0	0	0	0	catFR3	0	R1243T
1187.682	0.883	1207879	WORD_OFF	n/a	n/a	GUITAR	n/a	1	0	11	[0, 0, 0]	n/a	0	0	0	n/a	n/a	0.0	0	0	0	catFR3	0	R1243T
1188.565	1.6	1208762	WORD	n/a	wordpools/wordpool.txt	ORGAN	Instruments	2	0	11	[0, 0, 0]	n/a	0	0	0	n/a	n/a	0.0	0	0	0	catFR3	0	R1243T
1190.183	0.884	1210380	WORD_OFF	n/a	n/a	ORGAN	n/a	2	0	11	[0, 0, 0]	n/a	0	0	0	n/a	n/a	0.0	0	0	0	catFR3	0	R1243T
1191.067	1.6	1211264	WORD	n/a	wordpools/wordpool.txt	TULIP	Flowers	3	1	11	[0, 0, 0]	n/a	0	0	0	n/a	n/a	0.0	0	0	0	catFR3	0	R1243T
1192.683	0.834	1212880	WORD_OFF	n/a	n/a	TULIP	n/a	3	0	11	[0, 0, 0]	n/a	0	0	0	n/a	n/a	0.0	0	0	0	catFR3	0	R1243T
1193.517	1.6	1213714	WORD	n/a	wordpools/wordpool.txt	DAFFODIL	Flowers	4	0	11	[0, 0, 0]	n/a	0	0	0	n/a	n/a	0.0	0	0	0	catFR3	0	R1243T
1195.134	1.0	1215331	WORD_OFF	n/a	n/a	DAFFODIL	n/a	4	0	11	[0, 0, 0]	n/a	0	0	0	n/a	n/a	0.0	0	0	0	catFR3	0	R1243T
1196.134	1.6	1216331	WORD	n/a	wordpools/wordpool.txt	BIRCH	Trees	5	0	11	[0, 0, 0]	n/a	0	0	0	n/a	n/a	0.0	0	0	0	catFR3	0	R1243T
1197.751	0.866	1217948	WORD_OFF	n/a	n/a	BIRCH	n/a	5	0	11	[0, 0, 0]	n/a	0	0	0	n/a	n/a	0.0	0	0	0	catFR3	0	R1243T
1198.617	1.6	1218814	WORD	n/a	wordpools/wordpool.txt	OAK	Trees	6	1	11	[0, 0, 0]	n/a	0	0	0	n/a	n/a	0.0	0	0	0	catFR3	0	R1243T
1200.218	0.784	1220414	WORD_OFF	n/a	n/a	OAK	n/a	6	0	11	[0, 0, 0]	n/a	0	0	0	n/a	n/a	0.0	0	0	0	catFR3	0	R1243T
1201.002	1.6	1221198	WORD	n/a	wordpools/wordpool.txt	SUNFLOWER	Flowers	7	1	11	[0, 0, 0]	n/a	0	0	0	n/a	n/a	0.0	0	0	0	catFR3	0	R1243T
1202.618	0.917	1222814	WORD_OFF	n/a	n/a	SUNFLOWER	n/a	7	0	11	[0, 0, 0]	n/a	0	0	0	n/a	n/a	0.0	0	0	0	catFR3	0	R1243T
1203.535	1.6	1223731	WORD	n/a	wordpools/wordpool.txt	DAISY	Flowers	8	0	11	[0, 0, 0]	n/a	0	0	0	n/a	n/a	0.0	0	0	0	catFR3	0	R1243T
1205.153	0.9	1225349	WORD_OFF	n/a	n/a	DAISY	n/a	8	0	11	[0, 0, 0]	n/a	0	0	0	n/a	n/a	0.0	0	0	0	catFR3	0	R1243T
1206.053	1.6	1226249	WORD	n/a	wordpools/wordpool.txt	BASS	Instruments	9	0	11	[0, 0, 0]	n/a	0	0	0	n/a	n/a	0.0	0	0	0	catFR3	0	R1243T
1207.669	0.933	1227865	WORD_OFF	n/a	n/a	BASS	n/a	9	0	11	[0, 0, 0]	n/a	0	0	0	n/a	n/a	0.0	0	0	0	catFR3	0	R1243T
1208.602	1.6	1228798	WORD	n/a	wordpools/wordpool.txt	PIANO	Instruments	10	0	11	[0, 0, 0]	n/a	0	0	0	n/a	n/a	0.0	0	0	0	catFR3	0	R1243T
1210.22	0.817	1230416	WORD_OFF	n/a	n/a	PIANO	n/a	10	0	11	[0, 0, 0]	n/a	0	0	0	n/a	n/a	0.0	0	0	0	catFR3	0	R1243T
1211.037	1.6	1231233	WORD	n/a	wordpools/wordpool.txt	ELM	Trees	11	1	11	[0, 0, 0]	n/a	0	0	0	n/a	n/a	0.0	0	0	0	catFR3	0	R1243T
1212.653	0.884	1232849	WORD_OFF	n/a	n/a	ELM	n/a	11	0	11	[0, 0, 0]	n/a	0	0	0	n/a	n/a	0.0	0	0	0	catFR3	0	R1243T
1213.537	1.6	1233733	WORD	n/a	wordpools/wordpool.txt	WILLOW	Trees	12	1	11	[0, 0, 0]	n/a	0	0	0	n/a	n/a	0.0	0	0	0	catFR3	0	R1243T
1215.154	0.001	1235350	WORD_OFF	n/a	n/a	WILLOW	n/a	12	0	11	[0, 0, 0]	n/a	0	0	0	n/a	n/a	0.0	0	0	0	catFR3	0	R1243T
1215.155	0.055	1235351	ENCODING_END	n/a	n/a	n/a	n/a	-999	0	11	[0, 0, 0]	n/a	0	0	0	n/a	n/a	0.0	0	0	0	catFR3	0	R1243T
1215.21	0.0	1235406	DISTRACT_START	n/a	n/a	n/a	n/a	-999	0	11	[0, 0, 0]	n/a	0	0	0	n/a	n/a	0.0	0	0	0	catFR3	0	R1243T
1215.21	0.011	1235406	START	n/a	n/a	n/a	n/a	-999	0	11	[-999, -999, -999]	n/a	0	0	0	n/a	n/a	0.0	0	0	0	catFR3	0	R1243T
1215.221	6.601	1235417	PROB	6.57	n/a	n/a	n/a	-999	0	11	[9, 6, 5]	20	0	0	0	n/a	n/a	0.0	0	0	0	catFR3	0	R1243T
1221.822	4.151	1242017	PROB	4.113	n/a	n/a	n/a	-999	0	11	[5, 9, 6]	20	0	0	0	n/a	n/a	0.0	0	0	0	catFR3	0	R1243T
1225.973	4.751	1246168	PROB	4.713	n/a	n/a	n/a	-999	0	11	[4, 3, 6]	13	0	0	0	n/a	n/a	0.0	0	0	0	catFR3	0	R1243T
1230.724	4.738	1250919	PROB	4.738	n/a	n/a	n/a	-999	0	11	[6, 8, 7]	21	0	0	0	n/a	n/a	0.0	0	0	0	catFR3	0	R1243T
1235.462	0.013	1255656	STOP	n/a	n/a	n/a	n/a	-999	0	11	[-999, -999, -999]	n/a	0	0	0	n/a	n/a	0.0	0	0	0	catFR3	0	R1243T
1235.475	0.583	1255669	DISTRACT_END	n/a	n/a	n/a	n/a	-999	0	11	[0, 0, 0]	n/a	0	0	0	n/a	n/a	0.0	0	0	0	catFR3	0	R1243T
1236.058	0.5	1256252	RETRIEVAL_ORIENT	n/a	n/a	n/a	n/a	-999	0	11	[0, 0, 0]	n/a	0	0	0	n/a	n/a	0.0	0	0	0	catFR3	0	R1243T
1236.575	3.866	1256769	REC_START	n/a	n/a	n/a	n/a	-999	0	11	[0, 0, 0]	n/a	0	0	0	n/a	n/a	0.0	0	0	0	catFR3	0	R1243T
1240.441	2.146	1260635	REC_WORD	3.866	n/a	ELK	n/a	-999	0	11	[0, 0, 0]	n/a	0	0	0	n/a	n/a	0.0	0	0	0	catFR3	0	R1243T
1242.587	0.217	1262781	REC_WORD_VV	6.012	n/a	<>	n/a	-999	0	11	[0, 0, 0]	n/a	0	0	0	n/a	n/a	0.0	0	0	0	catFR3	0	R1243T
1242.804	1.584	1262998	REC_WORD	6.229	n/a	ELM	Trees	11	1	11	[0, 0, 0]	n/a	0	0	0	n/a	n/a	0.0	0	0	0	catFR3	0	R1243T
1244.388	4.625	1264582	REC_WORD	7.813	n/a	OAK	Trees	6	1	11	[0, 0, 0]	n/a	0	0	0	n/a	n/a	0.0	0	0	0	catFR3	0	R1243T
1249.013	3.59	1269206	REC_WORD	12.438	n/a	SUNFLOWER	Flowers	7	1	11	[0, 0, 0]	n/a	0	0	0	n/a	n/a	0.0	0	0	0	catFR3	0	R1243T
1252.603	12.161	1272796	REC_WORD	16.028	n/a	TULIP	Flowers	3	1	11	[0, 0, 0]	n/a	0	0	0	n/a	n/a	0.0	0	0	0	catFR3	0	R1243T
1264.764	1.822	1284957	REC_WORD	28.189	n/a	WILLOW	Trees	12	1	11	[0, 0, 0]	n/a	0	0	0	n/a	n/a	0.0	0	0	0	catFR3	0	R1243T
1266.586	5.044	1286778	REC_END	n/a	n/a	n/a	n/a	-999	0	11	[0, 0, 0]	n/a	0	0	0	n/a	n/a	0.0	0	0	0	catFR3	0	R1243T
1271.63	0.5	1291822	TRIAL	n/a	n/a	n/a	n/a	-999	0	12	[0, 0, 0]	n/a	0	1	0	n/a	n/a	0.0	0	0	0	catFR3	0	R1243T
1272.13	10.0	1292322	COUNTDOWN_START	n/a	n/a	n/a	n/a	-999	0	12	[0, 0, 0]	n/a	0	1	0	n/a	n/a	0.0	0	0	0	catFR3	0	R1243T
1282.558	0.008	1302749	COUNTDOWN_END	n/a	n/a	n/a	n/a	-999	0	12	[0, 0, 0]	n/a	0	1	0	n/a	n/a	0.0	0	0	0	catFR3	0	R1243T
1282.566	1.6	1302757	ORIENT	n/a	n/a	n/a	n/a	-999	0	12	[0, 0, 0]	n/a	0	1	0	n/a	n/a	0.0	0	0	0	catFR3	0	R1243T
1284.167	2.217	1304358	ORIENT_OFF	n/a	n/a	n/a	n/a	-999	0	12	[0, 0, 0]	n/a	0	1	0	n/a	n/a	0.0	0	0	0	catFR3	0	R1243T
1286.384	1.6	1306575	WORD	n/a	wordpools/wordpool.txt	SHEEP	FarmAnimals	1	1	12	[0, 0, 0]	n/a	0	1	0	n/a	n/a	0.0	0	0	0	catFR3	0	R1243T
1286.571	0.5	1306762	STIM_ON	n/a	n/a	SHEEP	n/a	1	1	12	[0, 0, 0]	n/a	1	1	500	LB8	LB9	750.0	100	50	300	catFR3	0	R1243T
1287.061	0.94	1307252	STIM_OFF	n/a	n/a	n/a	n/a	1	0	12	[0, 0, 0]	n/a	0	1	500	LB8	LB9	750.0	100	50	300	catFR3	0	R1243T
1288.001	0.967	1308192	WORD_OFF	n/a	n/a	SHEEP	n/a	1	0	12	[0, 0, 0]	n/a	0	1	0	n/a	n/a	0.0	0	0	0	catFR3	0	R1243T
1288.968	1.6	1309159	WORD	n/a	wordpools/wordpool.txt	CHICKEN	FarmAnimals	2	0	12	[0, 0, 0]	n/a	0	1	0	n/a	n/a	0.0	0	0	0	catFR3	0	R1243T
1289.157	0.5	1309348	STIM_ON	n/a	n/a	CHICKEN	n/a	2	0	12	[0, 0, 0]	n/a	1	1	500	LB8	LB9	750.0	100	50	300	catFR3	0	R1243T
1289.647	0.937	1309838	STIM_OFF	n/a	n/a	n/a	n/a	2	0	12	[0, 0, 0]	n/a	0	1	500	LB8	LB9	750.0	100	50	300	catFR3	0	R1243T
1290.584	0.884	1310775	WORD_OFF	n/a	n/a	CHICKEN	n/a	2	0	12	[0, 0, 0]	n/a	0	1	0	n/a	n/a	0.0	0	0	0	catFR3	0	R1243T
1291.468	1.6	1311659	WORD	n/a	wordpools/wordpool.txt	GOOSE	Birds	3	0	12	[0, 0, 0]	n/a	0	1	0	n/a	n/a	0.0	0	0	0	catFR3	0	R1243T
1293.085	0.934	1313276	WORD_OFF	n/a	n/a	GOOSE	n/a	3	0	12	[0, 0, 0]	n/a	0	1	0	n/a	n/a	0.0	0	0	0	catFR3	0	R1243T
1294.019	1.6	1314210	WORD	n/a	wordpools/wordpool.txt	FINCH	Birds	4	0	12	[0, 0, 0]	n/a	0	1	0	n/a	n/a	0.0	0	0	0	catFR3	0	R1243T
1295.635	0.884	1315826	WORD_OFF	n/a	n/a	FINCH	n/a	4	0	12	[0, 0, 0]	n/a	0	1	0	n/a	n/a	0.0	0	0	0	catFR3	0	R1243T
1296.519	1.6	1316710	WORD	n/a	wordpools/wordpool.txt	DRIZZLE	Weather	5	0	12	[0, 0, 0]	n/a	0	1	0	n/a	n/a	0.0	0	0	0	catFR3	0	R1243T
1296.709	0.5	1316900	STIM_ON	n/a	n/a	DRIZZLE	n/a	5	0	12	[0, 0, 0]	n/a	1	1	500	LB8	LB9	750.0	100	50	300	catFR3	0	R1243T
1297.199	0.937	1317390	STIM_OFF	n/a	n/a	n/a	n/a	5	0	12	[0, 0, 0]	n/a	0	1	500	LB8	LB9	750.0	100	50	300	catFR3	0	R1243T
1298.136	0.917	1318326	WORD_OFF	n/a	n/a	DRIZZLE	n/a	5	0	12	[0, 0, 0]	n/a	0	1	0	n/a	n/a	0.0	0	0	0	catFR3	0	R1243T
1299.053	1.6	1319243	WORD	n/a	wordpools/wordpool.txt	TORNADO	Weather	6	0	12	[0, 0, 0]	n/a	0	1	0	n/a	n/a	0.0	0	0	0	catFR3	0	R1243T
1299.244	0.5	1319434	STIM_ON	n/a	n/a	TORNADO	n/a	6	0	12	[0, 0, 0]	n/a	1	1	500	LB8	LB9	750.0	100	50	300	catFR3	0	R1243T
1299.734	0.935	1319924	STIM_OFF	n/a	n/a	n/a	n/a	6	0	12	[0, 0, 0]	n/a	0	1	500	LB8	LB9	750.0	100	50	300	catFR3	0	R1243T
1300.669	0.9	1320859	WORD_OFF	n/a	n/a	TORNADO	n/a	6	0	12	[0, 0, 0]	n/a	0	1	0	n/a	n/a	0.0	0	0	0	catFR3	0	R1243T
1301.569	1.6	1321759	WORD	n/a	wordpools/wordpool.txt	ROBIN	Birds	7	0	12	[0, 0, 0]	n/a	0	1	0	n/a	n/a	0.0	0	0	0	catFR3	0	R1243T
1303.187	0.917	1323377	WORD_OFF	n/a	n/a	ROBIN	n/a	7	0	12	[0, 0, 0]	n/a	0	1	0	n/a	n/a	0.0	0	0	0	catFR3	0	R1243T
1304.104	1.6	1324294	WORD	n/a	wordpools/wordpool.txt	CROW	Birds	8	0	12	[0, 0, 0]	n/a	0	1	0	n/a	n/a	0.0	0	0	0	catFR3	0	R1243T
1304.293	0.5	1324483	STIM_ON	n/a	n/a	CROW	n/a	8	0	12	[0, 0, 0]	n/a	1	1	500	LB8	LB9	750.0	100	50	300	catFR3	0	R1243T
1304.783	0.938	1324973	STIM_OFF	n/a	n/a	n/a	n/a	8	0	12	[0, 0, 0]	n/a	0	1	500	LB8	LB9	750.0	100	50	300	catFR3	0	R1243T
1305.721	0.866	1325911	WORD_OFF	n/a	n/a	CROW	n/a	8	0	12	[0, 0, 0]	n/a	0	1	0	n/a	n/a	0.0	0	0	0	catFR3	0	R1243T
1306.587	1.6	1326777	WORD	n/a	wordpools/wordpool.txt	LAMB	FarmAnimals	9	1	12	[0, 0, 0]	n/a	0	1	0	n/a	n/a	0.0	0	0	0	catFR3	0	R1243T
1308.188	0.767	1328378	WORD_OFF	n/a	n/a	LAMB	n/a	9	0	12	[0, 0, 0]	n/a	0	1	0	n/a	n/a	0.0	0	0	0	catFR3	0	R1243T
1308.955	1.6	1329145	WORD	n/a	wordpools/wordpool.txt	CALF	FarmAnimals	10	1	12	[0, 0, 0]	n/a	0	1	0	n/a	n/a	0.0	0	0	0	catFR3	0	R1243T
1310.571	0.768	1330761	WORD_OFF	n/a	n/a	CALF	n/a	10	0	12	[0, 0, 0]	n/a	0	1	0	n/a	n/a	0.0	0	0	0	catFR3	0	R1243T
1311.339	1.6	1331529	WORD	n/a	wordpools/wordpool.txt	FOG	Weather	11	0	12	[0, 0, 0]	n/a	0	1	0	n/a	n/a	0.0	0	0	0	catFR3	0	R1243T
1312.956	0.883	1333146	WORD_OFF	n/a	n/a	FOG	n/a	11	0	12	[0, 0, 0]	n/a	0	1	0	n/a	n/a	0.0	0	0	0	catFR3	0	R1243T
1313.839	1.6	1334029	WORD	n/a	wordpools/wordpool.txt	LIGHTNING	Weather	12	0	12	[0, 0, 0]	n/a	0	1	0	n/a	n/a	0.0	0	0	0	catFR3	0	R1243T
1314.034	0.5	1334223	STIM_ON	n/a	n/a	n/a	n/a	11	0	12	[0, 0, 0]	n/a	1	1	500	LB8	LB9	750.0	100	50	300	catFR3	0	R1243T
1314.524	0.932	1334713	STIM_OFF	n/a	n/a	n/a	n/a	11	0	12	[0, 0, 0]	n/a	0	1	500	LB8	LB9	750.0	100	50	300	catFR3	0	R1243T
1315.456	0.0	1335645	ENCODING_END	n/a	n/a	n/a	n/a	-999	0	12	[0, 0, 0]	n/a	0	1	0	n/a	n/a	0.0	0	0	0	catFR3	0	R1243T
1315.456	0.057	1335645	WORD_OFF	n/a	n/a	LIGHTNING	n/a	12	0	12	[0, 0, 0]	n/a	0	1	0	n/a	n/a	0.0	0	0	0	catFR3	0	R1243T
1315.513	0.0	1335702	DISTRACT_START	n/a	n/a	n/a	n/a	-999	0	12	[0, 0, 0]	n/a	0	1	0	n/a	n/a	0.0	0	0	0	catFR3	0	R1243T
1315.513	0.01	1335702	START	n/a	n/a	n/a	n/a	-999	0	12	[-999, -999, -999]	n/a	0	1	0	n/a	n/a	0.0	0	0	0	catFR3	0	R1243T
1315.523	4.267	1335712	PROB	4.244	n/a	n/a	n/a	-999	0	12	[1, 4, 3]	8	0	1	0	n/a	n/a	0.0	0	0	0	catFR3	0	R1243T
1319.79	4.634	1339979	PROB	4.601	n/a	n/a	n/a	-999	0	12	[3, 6, 1]	10	0	1	0	n/a	n/a	0.0	0	0	0	catFR3	0	R1243T
1324.424	4.15	1344613	PROB	4.127	n/a	n/a	n/a	-999	0	12	[6, 8, 7]	21	0	1	0	n/a	n/a	0.0	0	0	0	catFR3	0	R1243T
1328.574	3.535	1348763	PROB	3.512	n/a	n/a	n/a	-999	0	12	[6, 4, 9]	19	0	1	0	n/a	n/a	0.0	0	0	0	catFR3	0	R1243T
1332.109	5.186	1352297	PROB	5.186	n/a	n/a	n/a	-999	0	12	[9, 8, 8]	25	0	1	0	n/a	n/a	0.0	0	0	0	catFR3	0	R1243T
1337.295	0.015	1357483	STOP	n/a	n/a	n/a	n/a	-999	0	12	[-999, -999, -999]	n/a	0	1	0	n/a	n/a	0.0	0	0	0	catFR3	0	R1243T
1337.31	0.584	1357498	DISTRACT_END	n/a	n/a	n/a	n/a	-999	0	12	[0, 0, 0]	n/a	0	1	0	n/a	n/a	0.0	0	0	0	catFR3	0	R1243T
1337.894	0.5	1358082	RETRIEVAL_ORIENT	n/a	n/a	n/a	n/a	-999	0	12	[0, 0, 0]	n/a	0	1	0	n/a	n/a	0.0	0	0	0	catFR3	0	R1243T
1338.411	4.299	1358599	REC_START	n/a	n/a	n/a	n/a	-999	0	12	[0, 0, 0]	n/a	0	1	0	n/a	n/a	0.0	0	0	0	catFR3	0	R1243T
1342.71	1.65	1362898	REC_WORD	4.299	n/a	LAMB	FarmAnimals	9	1	12	[0, 0, 0]	n/a	0	1	0	n/a	n/a	0.0	0	0	0	catFR3	0	R1243T
1344.36	10.656	1364548	REC_WORD	5.949	n/a	CALF	FarmAnimals	10	1	12	[0, 0, 0]	n/a	0	1	0	n/a	n/a	0.0	0	0	0	catFR3	0	R1243T
1355.016	9.472	1375203	REC_WORD	16.605	n/a	GOAT	n/a	-999	0	12	[0, 0, 0]	n/a	0	1	0	n/a	n/a	0.0	0	0	0	catFR3	0	R1243T
1364.488	3.934	1384674	REC_WORD	26.077	n/a	SHEEP	FarmAnimals	1	1	12	[0, 0, 0]	n/a	0	1	0	n/a	n/a	0.0	0	0	0	catFR3	0	R1243T
1368.422	5.561	1388608	REC_END	n/a	n/a	n/a	n/a	-999	0	12	[0, 0, 0]	n/a	0	1	0	n/a	n/a	0.0	0	0	0	catFR3	0	R1243T
1373.983	0.5	1394169	TRIAL	n/a	n/a	n/a	n/a	-999	0	13	[0, 0, 0]	n/a	0	1	0	n/a	n/a	0.0	0	0	0	catFR3	0	R1243T
1374.483	10.0	1394669	COUNTDOWN_START	n/a	n/a	n/a	n/a	-999	0	13	[0, 0, 0]	n/a	0	1	0	n/a	n/a	0.0	0	0	0	catFR3	0	R1243T
1384.911	0.008	1405096	COUNTDOWN_END	n/a	n/a	n/a	n/a	-999	0	13	[0, 0, 0]	n/a	0	1	0	n/a	n/a	0.0	0	0	0	catFR3	0	R1243T
1384.919	1.6	1405104	ORIENT	n/a	n/a	n/a	n/a	-999	0	13	[0, 0, 0]	n/a	0	1	0	n/a	n/a	0.0	0	0	0	catFR3	0	R1243T
1386.535	2.184	1406720	ORIENT_OFF	n/a	n/a	n/a	n/a	-999	0	13	[0, 0, 0]	n/a	0	1	0	n/a	n/a	0.0	0	0	0	catFR3	0	R1243T
1388.719	1.6	1408904	WORD	n/a	wordpools/wordpool.txt	FORK	KitchenTools	1	0	13	[0, 0, 0]	n/a	0	1	0	n/a	n/a	0.0	0	0	0	catFR3	0	R1243T
1388.914	0.5	1409099	STIM_ON	n/a	n/a	FORK	n/a	1	0	13	[0, 0, 0]	n/a	1	1	500	LB8	LB9	750.0	100	50	300	catFR3	0	R1243T
1389.404	0.933	1409589	STIM_OFF	n/a	n/a	n/a	n/a	1	0	13	[0, 0, 0]	n/a	0	1	500	LB8	LB9	750.0	100	50	300	catFR3	0	R1243T
1390.337	0.85	1410522	WORD_OFF	n/a	n/a	FORK	n/a	1	0	13	[0, 0, 0]	n/a	0	1	0	n/a	n/a	0.0	0	0	0	catFR3	0	R1243T
1391.187	1.6	1411372	WORD	n/a	wordpools/wordpool.txt	STRAINER	KitchenTools	2	0	13	[0, 0, 0]	n/a	0	1	0	n/a	n/a	0.0	0	0	0	catFR3	0	R1243T
1391.383	0.5	1411568	STIM_ON	n/a	n/a	STRAINER	n/a	2	0	13	[0, 0, 0]	n/a	1	1	500	LB8	LB9	750.0	100	50	300	catFR3	0	R1243T
1391.873	0.931	1412058	STIM_OFF	n/a	n/a	n/a	n/a	2	0	13	[0, 0, 0]	n/a	0	1	500	LB8	LB9	750.0	100	50	300	catFR3	0	R1243T
1392.804	0.882	1412989	WORD_OFF	n/a	n/a	STRAINER	n/a	2	0	13	[0, 0, 0]	n/a	0	1	0	n/a	n/a	0.0	0	0	0	catFR3	0	R1243T
1393.686	1.6	1413871	WORD	n/a	wordpools/wordpool.txt	BEAR	Zoo	3	1	13	[0, 0, 0]	n/a	0	1	0	n/a	n/a	0.0	0	0	0	catFR3	0	R1243T
1393.886	0.5	1414071	STIM_ON	n/a	n/a	BEAR	n/a	3	1	13	[0, 0, 0]	n/a	1	1	500	LB8	LB9	750.0	100	50	300	catFR3	0	R1243T
1394.376	0.928	1414561	STIM_OFF	n/a	n/a	n/a	n/a	3	0	13	[0, 0, 0]	n/a	0	1	500	LB8	LB9	750.0	100	50	300	catFR3	0	R1243T
1395.304	0.917	1415488	WORD_OFF	n/a	n/a	BEAR	n/a	3	0	13	[0, 0, 0]	n/a	0	1	0	n/a	n/a	0.0	0	0	0	catFR3	0	R1243T
1396.221	1.6	1416405	WORD	n/a	wordpools/wordpool.txt	LION	Zoo	4	0	13	[0, 0, 0]	n/a	0	1	0	n/a	n/a	0.0	0	0	0	catFR3	0	R1243T
1397.838	0.782	1418022	WORD_OFF	n/a	n/a	LION	n/a	4	0	13	[0, 0, 0]	n/a	0	1	0	n/a	n/a	0.0	0	0	0	catFR3	0	R1243T
1398.62	1.6	1418804	WORD	n/a	wordpools/wordpool.txt	HAMMER	Tools	5	0	13	[0, 0, 0]	n/a	0	1	0	n/a	n/a	0.0	0	0	0	catFR3	0	R1243T
1400.238	0.8	1420422	WORD_OFF	n/a	n/a	HAMMER	n/a	5	0	13	[0, 0, 0]	n/a	0	1	0	n/a	n/a	0.0	0	0	0	catFR3	0	R1243T
1401.038	1.6	1421222	WORD	n/a	wordpools/wordpool.txt	AXE	Tools	6	1	13	[0, 0, 0]	n/a	0	1	0	n/a	n/a	0.0	0	0	0	catFR3	0	R1243T
1402.654	0.785	1422838	WORD_OFF	n/a	n/a	AXE	n/a	6	0	13	[0, 0, 0]	n/a	0	1	0	n/a	n/a	0.0	0	0	0	catFR3	0	R1243T
1403.439	1.6	1423623	WORD	n/a	wordpools/wordpool.txt	SPATULA	KitchenTools	7	0	13	[0, 0, 0]	n/a	0	1	0	n/a	n/a	0.0	0	0	0	catFR3	0	R1243T
1405.056	0.917	1425240	WORD_OFF	n/a	n/a	SPATULA	n/a	7	0	13	[0, 0, 0]	n/a	0	1	0	n/a	n/a	0.0	0	0	0	catFR3	0	R1243T
1405.973	1.6	1426157	WORD	n/a	wordpools/wordpool.txt	COLANDER	KitchenTools	8	0	13	[0, 0, 0]	n/a	0	1	0	n/a	n/a	0.0	0	0	0	catFR3	0	R1243T
1406.168	0.5	1426352	STIM_ON	n/a	n/a	COLANDER	n/a	8	0	13	[0, 0, 0]	n/a	1	1	500	LB8	LB9	750.0	100	50	300	catFR3	0	R1243T
1406.658	0.931	1426842	STIM_OFF	n/a	n/a	n/a	n/a	8	0	13	[0, 0, 0]	n/a	0	1	500	LB8	LB9	750.0	100	50	300	catFR3	0	R1243T
1407.589	0.817	1427773	WORD_OFF	n/a	n/a	COLANDER	n/a	8	0	13	[0, 0, 0]	n/a	0	1	0	n/a	n/a	0.0	0	0	0	catFR3	0	R1243T
1408.406	1.6	1428590	WORD	n/a	wordpools/wordpool.txt	PANDA	Zoo	9	1	13	[0, 0, 0]	n/a	0	1	0	n/a	n/a	0.0	0	0	0	catFR3	0	R1243T
1408.602	0.5	1428786	STIM_ON	n/a	n/a	PANDA	n/a	9	1	13	[0, 0, 0]	n/a	1	1	500	LB8	LB9	750.0	100	50	300	catFR3	0	R1243T
1409.092	0.931	1429276	STIM_OFF	n/a	n/a	n/a	n/a	9	0	13	[0, 0, 0]	n/a	0	1	500	LB8	LB9	750.0	100	50	300	catFR3	0	R1243T
1410.023	0.834	1430207	WORD_OFF	n/a	n/a	PANDA	n/a	9	0	13	[0, 0, 0]	n/a	0	1	0	n/a	n/a	0.0	0	0	0	catFR3	0	R1243T
1410.857	1.6	1431041	WORD	n/a	wordpools/wordpool.txt	ZEBRA	Zoo	10	0	13	[0, 0, 0]	n/a	0	1	0	n/a	n/a	0.0	0	0	0	catFR3	0	R1243T
1412.474	0.95	1432657	WORD_OFF	n/a	n/a	ZEBRA	n/a	10	0	13	[0, 0, 0]	n/a	0	1	0	n/a	n/a	0.0	0	0	0	catFR3	0	R1243T
1413.424	1.6	1433607	WORD	n/a	wordpools/wordpool.txt	SHOVEL	Tools	11	0	13	[0, 0, 0]	n/a	0	1	0	n/a	n/a	0.0	0	0	0	catFR3	0	R1243T
1415.041	0.967	1435224	WORD_OFF	n/a	n/a	SHOVEL	n/a	11	0	13	[0, 0, 0]	n/a	0	1	0	n/a	n/a	0.0	0	0	0	catFR3	0	R1243T
1416.008	1.6	1436191	WORD	n/a	wordpools/wordpool.txt	RATCHET	Tools	12	1	13	[0, 0, 0]	n/a	0	1	0	n/a	n/a	0.0	0	0	0	catFR3	0	R1243T
1416.21	0.5	1436393	STIM_ON	n/a	n/a	n/a	n/a	11	0	13	[0, 0, 0]	n/a	1	1	500	LB8	LB9	750.0	100	50	300	catFR3	0	R1243T
1416.7	0.924	1436883	STIM_OFF	n/a	n/a	n/a	n/a	11	0	13	[0, 0, 0]	n/a	0	1	500	LB8	LB9	750.0	100	50	300	catFR3	0	R1243T
1417.624	0.0	1437807	ENCODING_END	n/a	n/a	n/a	n/a	-999	0	13	[0, 0, 0]	n/a	0	1	0	n/a	n/a	0.0	0	0	0	catFR3	0	R1243T
1417.624	0.056	1437807	WORD_OFF	n/a	n/a	RATCHET	n/a	12	0	13	[0, 0, 0]	n/a	0	1	0	n/a	n/a	0.0	0	0	0	catFR3	0	R1243T
1417.68	0.0	1437863	DISTRACT_START	n/a	n/a	n/a	n/a	-999	0	13	[0, 0, 0]	n/a	0	1	0	n/a	n/a	0.0	0	0	0	catFR3	0	R1243T
1417.68	0.01	1437863	START	n/a	n/a	n/a	n/a	-999	0	13	[-999, -999, -999]	n/a	0	1	0	n/a	n/a	0.0	0	0	0	catFR3	0	R1243T
1417.69	5.619	1437873	PROB	5.581	n/a	n/a	n/a	-999	0	13	[7, 7, 5]	19	0	1	0	n/a	n/a	0.0	0	0	0	catFR3	0	R1243T
1423.309	4.601	1443492	PROB	4.578	n/a	n/a	n/a	-999	0	13	[5, 2, 1]	8	0	1	0	n/a	n/a	0.0	0	0	0	catFR3	0	R1243T
1427.91	3.934	1448092	PROB	3.906	n/a	n/a	n/a	-999	0	13	[1, 4, 9]	14	0	1	0	n/a	n/a	0.0	0	0	0	catFR3	0	R1243T
1431.844	4.334	1452026	PROB	4.307	n/a	n/a	n/a	-999	0	13	[3, 2, 3]	8	0	1	0	n/a	n/a	0.0	0	0	0	catFR3	0	R1243T
1436.178	3.125	1456360	PROB	3.125	n/a	n/a	n/a	-999	0	13	[2, 2, 1]	5	0	1	0	n/a	n/a	0.0	0	0	0	catFR3	0	R1243T
1439.303	0.009	1459485	STOP	n/a	n/a	n/a	n/a	-999	0	13	[-999, -999, -999]	n/a	0	1	0	n/a	n/a	0.0	0	0	0	catFR3	0	R1243T
1439.312	0.683	1459494	DISTRACT_END	n/a	n/a	n/a	n/a	-999	0	13	[0, 0, 0]	n/a	0	1	0	n/a	n/a	0.0	0	0	0	catFR3	0	R1243T
1439.995	0.5	1460177	RETRIEVAL_ORIENT	n/a	n/a	n/a	n/a	-999	0	13	[0, 0, 0]	n/a	0	1	0	n/a	n/a	0.0	0	0	0	catFR3	0	R1243T
1440.513	1.686	1460695	REC_START	n/a	n/a	n/a	n/a	-999	0	13	[0, 0, 0]	n/a	0	1	0	n/a	n/a	0.0	0	0	0	catFR3	0	R1243T
1442.199	1.175	1462381	REC_WORD	1.686	n/a	AXE	Tools	6	1	13	[0, 0, 0]	n/a	0	1	0	n/a	n/a	0.0	0	0	0	catFR3	0	R1243T
1443.374	2.465	1463556	REC_WORD	2.861	n/a	RATCHET	Tools	12	1	13	[0, 0, 0]	n/a	0	1	0	n/a	n/a	0.0	0	0	0	catFR3	0	R1243T
1445.839	1.548	1466020	REC_WORD	5.326	n/a	BEAR	Zoo	3	1	13	[0, 0, 0]	n/a	0	1	0	n/a	n/a	0.0	0	0	0	catFR3	0	R1243T
1447.387	9.3	1467568	REC_WORD	6.874	n/a	PANDA	Zoo	9	1	13	[0, 0, 0]	n/a	0	1	0	n/a	n/a	0.0	0	0	0	catFR3	0	R1243T
1456.687	13.838	1476868	REC_WORD	16.174	n/a	LEVEL	n/a	-999	0	13	[0, 0, 0]	n/a	0	1	0	n/a	n/a	0.0	0	0	0	catFR3	0	R1243T
1470.525	5.427	1490705	REC_END	n/a	n/a	n/a	n/a	-999	0	13	[0, 0, 0]	n/a	0	1	0	n/a	n/a	0.0	0	0	0	catFR3	0	R1243T
1475.952	0.5	1496132	TRIAL	n/a	n/a	n/a	n/a	-999	0	14	[0, 0, 0]	n/a	0	1	0	n/a	n/a	0.0	0	0	0	catFR3	0	R1243T
1476.452	10.0	1496632	COUNTDOWN_START	n/a	n/a	n/a	n/a	-999	0	14	[0, 0, 0]	n/a	0	1	0	n/a	n/a	0.0	0	0	0	catFR3	0	R1243T
1486.88	0.007	1507059	COUNTDOWN_END	n/a	n/a	n/a	n/a	-999	0	14	[0, 0, 0]	n/a	0	1	0	n/a	n/a	0.0	0	0	0	catFR3	0	R1243T
1486.887	1.6	1507066	ORIENT	n/a	n/a	n/a	n/a	-999	0	14	[0, 0, 0]	n/a	0	1	0	n/a	n/a	0.0	0	0	0	catFR3	0	R1243T
1488.504	2.05	1508683	ORIENT_OFF	n/a	n/a	n/a	n/a	-999	0	14	[0, 0, 0]	n/a	0	1	0	n/a	n/a	0.0	0	0	0	catFR3	0	R1243T
1490.554	1.6	1510733	WORD	n/a	wordpools/wordpool.txt	ORANGUTAN	Zoo	1	0	14	[0, 0, 0]	n/a	0	1	0	n/a	n/a	0.0	0	0	0	catFR3	0	R1243T
1490.759	0.5	1510938	STIM_ON	n/a	n/a	ORANGUTAN	n/a	1	0	14	[0, 0, 0]	n/a	1	1	500	LB8	LB9	750.0	100	50	300	catFR3	0	R1243T
1491.249	0.923	1511428	STIM_OFF	n/a	n/a	n/a	n/a	1	0	14	[0, 0, 0]	n/a	0	1	500	LB8	LB9	750.0	100	50	300	catFR3	0	R1243T
1492.172	0.983	1512351	WORD_OFF	n/a	n/a	ORANGUTAN	n/a	1	0	14	[0, 0, 0]	n/a	0	1	0	n/a	n/a	0.0	0	0	0	catFR3	0	R1243T
1493.155	1.6	1513333	WORD	n/a	wordpools/wordpool.txt	MONKEY	Zoo	2	1	14	[0, 0, 0]	n/a	0	1	0	n/a	n/a	0.0	0	0	0	catFR3	0	R1243T
1494.772	0.916	1514950	WORD_OFF	n/a	n/a	MONKEY	n/a	2	0	14	[0, 0, 0]	n/a	0	1	0	n/a	n/a	0.0	0	0	0	catFR3	0	R1243T
1495.688	1.6	1515866	WORD	n/a	wordpools/wordpool.txt	WALNUT	Trees	3	0	14	[0, 0, 0]	n/a	0	1	0	n/a	n/a	0.0	0	0	0	catFR3	0	R1243T
1497.306	0.767	1517484	WORD_OFF	n/a	n/a	WALNUT	n/a	3	0	14	[0, 0, 0]	n/a	0	1	0	n/a	n/a	0.0	0	0	0	catFR3	0	R1243T
1498.073	1.6	1518251	WORD	n/a	wordpools/wordpool.txt	CYPRESS	Trees	4	0	14	[0, 0, 0]	n/a	0	1	0	n/a	n/a	0.0	0	0	0	catFR3	0	R1243T
1498.271	0.5	1518449	STIM_ON	n/a	n/a	CYPRESS	n/a	4	0	14	[0, 0, 0]	n/a	1	1	500	LB8	LB9	750.0	100	50	300	catFR3	0	R1243T
1498.761	0.928	1518939	STIM_OFF	n/a	n/a	n/a	n/a	4	0	14	[0, 0, 0]	n/a	0	1	500	LB8	LB9	750.0	100	50	300	catFR3	0	R1243T
1499.689	0.9	1519867	WORD_OFF	n/a	n/a	CYPRESS	n/a	4	0	14	[0, 0, 0]	n/a	0	1	0	n/a	n/a	0.0	0	0	0	catFR3	0	R1243T
1500.589	1.6	1520767	WORD	n/a	wordpools/wordpool.txt	GRAPE	Fruit	5	1	14	[0, 0, 0]	n/a	0	1	0	n/a	n/a	0.0	0	0	0	catFR3	0	R1243T
1500.793	0.5	1520971	STIM_ON	n/a	n/a	GRAPE	n/a	5	1	14	[0, 0, 0]	n/a	1	1	500	LB8	LB9	750.0	100	50	300	catFR3	0	R1243T
1501.283	0.924	1521461	STIM_OFF	n/a	n/a	n/a	n/a	5	0	14	[0, 0, 0]	n/a	0	1	500	LB8	LB9	750.0	100	50	300	catFR3	0	R1243T
1502.207	1.0	1522385	WORD_OFF	n/a	n/a	GRAPE	n/a	5	0	14	[0, 0, 0]	n/a	0	1	0	n/a	n/a	0.0	0	0	0	catFR3	0	R1243T
1503.207	1.6	1523385	WORD	n/a	wordpools/wordpool.txt	PLUM	Fruit	6	1	14	[0, 0, 0]	n/a	0	1	0	n/a	n/a	0.0	0	0	0	catFR3	0	R1243T
1503.41	0.5	1523588	STIM_ON	n/a	n/a	PLUM	n/a	6	1	14	[0, 0, 0]	n/a	1	1	500	LB8	LB9	750.0	100	50	300	catFR3	0	R1243T
1503.9	0.924	1524078	STIM_OFF	n/a	n/a	n/a	n/a	6	0	14	[0, 0, 0]	n/a	0	1	500	LB8	LB9	750.0	100	50	300	catFR3	0	R1243T
1504.824	0.832	1525002	WORD_OFF	n/a	n/a	PLUM	n/a	6	0	14	[0, 0, 0]	n/a	0	1	0	n/a	n/a	0.0	0	0	0	catFR3	0	R1243T
1505.656	1.6	1525834	WORD	n/a	wordpools/wordpool.txt	CEDAR	Trees	7	0	14	[0, 0, 0]	n/a	0	1	0	n/a	n/a	0.0	0	0	0	catFR3	0	R1243T
1505.864	0.5	1526042	STIM_ON	n/a	n/a	CEDAR	n/a	7	0	14	[0, 0, 0]	n/a	1	1	500	LB8	LB9	750.0	100	50	300	catFR3	0	R1243T
1506.354	0.92	1526532	STIM_OFF	n/a	n/a	n/a	n/a	7	0	14	[0, 0, 0]	n/a	0	1	500	LB8	LB9	750.0	100	50	300	catFR3	0	R1243T
1507.274	0.867	1527452	WORD_OFF	n/a	n/a	CEDAR	n/a	7	0	14	[0, 0, 0]	n/a	0	1	0	n/a	n/a	0.0	0	0	0	catFR3	0	R1243T
1508.141	1.6	1528319	WORD	n/a	wordpools/wordpool.txt	SPRUCE	Trees	8	0	14	[0, 0, 0]	n/a	0	1	0	n/a	n/a	0.0	0	0	0	catFR3	0	R1243T
1508.344	0.5	1528522	STIM_ON	n/a	n/a	SPRUCE	n/a	8	0	14	[0, 0, 0]	n/a	1	1	500	LB8	LB9	750.0	100	50	300	catFR3	0	R1243T
1508.834	0.924	1529012	STIM_OFF	n/a	n/a	n/a	n/a	8	0	14	[0, 0, 0]	n/a	0	1	500	LB8	LB9	750.0	100	50	300	catFR3	0	R1243T
1509.758	0.767	1529935	WORD_OFF	n/a	n/a	SPRUCE	n/a	8	0	14	[0, 0, 0]	n/a	0	1	0	n/a	n/a	0.0	0	0	0	catFR3	0	R1243T
1510.525	1.6	1530702	WORD	n/a	wordpools/wordpool.txt	GORILLA	Zoo	9	0	14	[0, 0, 0]	n/a	0	1	0	n/a	n/a	0.0	0	0	0	catFR3	0	R1243T
1510.732	0.5	1530909	STIM_ON	n/a	n/a	GORILLA	n/a	9	0	14	[0, 0, 0]	n/a	1	1	500	LB8	LB9	750.0	100	50	300	catFR3	0	R1243T
1511.222	0.92	1531399	STIM_OFF	n/a	n/a	n/a	n/a	9	0	14	[0, 0, 0]	n/a	0	1	500	LB8	LB9	750.0	100	50	300	catFR3	0	R1243T
1512.142	0.817	1532319	WORD_OFF	n/a	n/a	GORILLA	n/a	9	0	14	[0, 0, 0]	n/a	0	1	0	n/a	n/a	0.0	0	0	0	catFR3	0	R1243T
1512.959	1.6	1533136	WORD	n/a	wordpools/wordpool.txt	GIRAFFE	Zoo	10	1	14	[0, 0, 0]	n/a	0	1	0	n/a	n/a	0.0	0	0	0	catFR3	0	R1243T
1513.161	0.5	1533338	STIM_ON	n/a	n/a	GIRAFFE	n/a	10	1	14	[0, 0, 0]	n/a	1	1	500	LB8	LB9	750.0	100	50	300	catFR3	0	R1243T
1513.651	0.924	1533828	STIM_OFF	n/a	n/a	n/a	n/a	10	0	14	[0, 0, 0]	n/a	0	1	500	LB8	LB9	750.0	100	50	300	catFR3	0	R1243T
1514.575	0.768	1534752	WORD_OFF	n/a	n/a	GIRAFFE	n/a	10	0	14	[0, 0, 0]	n/a	0	1	0	n/a	n/a	0.0	0	0	0	catFR3	0	R1243T
1515.343	1.6	1535520	WORD	n/a	wordpools/wordpool.txt	PEACH	Fruit	11	0	14	[0, 0, 0]	n/a	0	1	0	n/a	n/a	0.0	0	0	0	catFR3	0	R1243T
1516.96	0.95	1537137	WORD_OFF	n/a	n/a	PEACH	n/a	11	0	14	[0, 0, 0]	n/a	0	1	0	n/a	n/a	0.0	0	0	0	catFR3	0	R1243T
1517.91	1.6	1538087	WORD	n/a	wordpools/wordpool.txt	BANANA	Fruit	12	0	14	[0, 0, 0]	n/a	0	1	0	n/a	n/a	0.0	0	0	0	catFR3	0	R1243T
1519.527	0.0	1539704	ENCODING_END	n/a	n/a	n/a	n/a	-999	0	14	[0, 0, 0]	n/a	0	1	0	n/a	n/a	0.0	0	0	0	catFR3	0	R1243T
1519.527	0.057	1539704	WORD_OFF	n/a	n/a	BANANA	n/a	12	0	14	[0, 0, 0]	n/a	0	1	0	n/a	n/a	0.0	0	0	0	catFR3	0	R1243T
1519.584	0.0	1539761	DISTRACT_START	n/a	n/a	n/a	n/a	-999	0	14	[0, 0, 0]	n/a	0	1	0	n/a	n/a	0.0	0	0	0	catFR3	0	R1243T
1519.584	0.008	1539761	START	n/a	n/a	n/a	n/a	-999	0	14	[-999, -999, -999]	n/a	0	1	0	n/a	n/a	0.0	0	0	0	catFR3	0	R1243T
1519.592	4.269	1539769	PROB	4.232	n/a	n/a	n/a	-999	0	14	[5, 5, 5]	15	0	1	0	n/a	n/a	0.0	0	0	0	catFR3	0	R1243T
1523.861	4.567	1544038	PROB	4.538	n/a	n/a	n/a	-999	0	14	[9, 5, 8]	22	0	1	0	n/a	n/a	0.0	0	0	0	catFR3	0	R1243T
1528.428	3.651	1548604	PROB	3.627	n/a	n/a	n/a	-999	0	14	[4, 8, 5]	17	0	1	0	n/a	n/a	0.0	0	0	0	catFR3	0	R1243T
1532.079	3.617	1552255	PROB	3.583	n/a	n/a	n/a	-999	0	14	[3, 8, 2]	13	0	1	0	n/a	n/a	0.0	0	0	0	catFR3	0	R1243T
1535.696	3.958	1555872	PROB	3.958	n/a	n/a	n/a	-999	0	14	[2, 5, 9]	16	0	1	0	n/a	n/a	0.0	0	0	0	catFR3	0	R1243T
1539.654	0.009	1559830	STOP	n/a	n/a	n/a	n/a	-999	0	14	[-999, -999, -999]	n/a	0	1	0	n/a	n/a	0.0	0	0	0	catFR3	0	R1243T
1539.663	0.584	1559839	DISTRACT_END	n/a	n/a	n/a	n/a	-999	0	14	[0, 0, 0]	n/a	0	1	0	n/a	n/a	0.0	0	0	0	catFR3	0	R1243T
1540.247	0.5	1560423	RETRIEVAL_ORIENT	n/a	n/a	n/a	n/a	-999	0	14	[0, 0, 0]	n/a	0	1	0	n/a	n/a	0.0	0	0	0	catFR3	0	R1243T
1540.765	2.816	1560941	REC_START	n/a	n/a	n/a	n/a	-999	0	14	[0, 0, 0]	n/a	0	1	0	n/a	n/a	0.0	0	0	0	catFR3	0	R1243T
1543.581	1.693	1563756	REC_WORD	2.816	n/a	PLUM	Fruit	6	1	14	[0, 0, 0]	n/a	0	1	0	n/a	n/a	0.0	0	0	0	catFR3	0	R1243T
1545.274	1.856	1565449	REC_WORD	4.509	n/a	GRAPE	Fruit	5	1	14	[0, 0, 0]	n/a	0	1	0	n/a	n/a	0.0	0	0	0	catFR3	0	R1243T
1547.13	2.275	1567305	REC_WORD	6.365	n/a	GIRAFFE	Zoo	10	1	14	[0, 0, 0]	n/a	0	1	0	n/a	n/a	0.0	0	0	0	catFR3	0	R1243T
1549.405	3.034	1569580	REC_WORD	8.64	n/a	MONKEY	Zoo	2	1	14	[0, 0, 0]	n/a	0	1	0	n/a	n/a	0.0	0	0	0	catFR3	0	R1243T
1552.439	6.61	1572614	REC_WORD	11.674	n/a	ZEBRA	n/a	-999	0	14	[0, 0, 0]	n/a	0	1	0	n/a	n/a	0.0	0	0	0	catFR3	0	R1243T
1559.049	2.857	1579223	REC_WORD	18.284	n/a	ELM	n/a	-999	0	14	[0, 0, 0]	n/a	0	1	0	n/a	n/a	0.0	0	0	0	catFR3	0	R1243T
1561.906	1.608	1582080	REC_WORD	21.141	n/a	OAK	n/a	-999	0	14	[0, 0, 0]	n/a	0	1	0	n/a	n/a	0.0	0	0	0	catFR3	0	R1243T
1563.514	7.261	1583688	REC_WORD	22.749	n/a	WILLOW	n/a	-999	0	14	[0, 0, 0]	n/a	0	1	0	n/a	n/a	0.0	0	0	0	catFR3	0	R1243T
1570.775	5.495	1590949	REC_END	n/a	n/a	n/a	n/a	-999	0	14	[0, 0, 0]	n/a	0	1	0	n/a	n/a	0.0	0	0	0	catFR3	0	R1243T
1576.27	0.5	1596443	TRIAL	n/a	n/a	n/a	n/a	-999	0	15	[0, 0, 0]	n/a	0	1	0	n/a	n/a	0.0	0	0	0	catFR3	0	R1243T
1576.77	10.0	1596943	COUNTDOWN_START	n/a	n/a	n/a	n/a	-999	0	15	[0, 0, 0]	n/a	0	1	0	n/a	n/a	0.0	0	0	0	catFR3	0	R1243T
1587.198	0.008	1607371	COUNTDOWN_END	n/a	n/a	n/a	n/a	-999	0	15	[0, 0, 0]	n/a	0	1	0	n/a	n/a	0.0	0	0	0	catFR3	0	R1243T
1587.206	1.6	1607379	ORIENT	n/a	n/a	n/a	n/a	-999	0	15	[0, 0, 0]	n/a	0	1	0	n/a	n/a	0.0	0	0	0	catFR3	0	R1243T
1588.823	1.967	1608996	ORIENT_OFF	n/a	n/a	n/a	n/a	-999	0	15	[0, 0, 0]	n/a	0	1	0	n/a	n/a	0.0	0	0	0	catFR3	0	R1243T
1590.79	1.6	1610962	WORD	n/a	wordpools/wordpool.txt	FOOTBALL	Toys	1	1	15	[0, 0, 0]	n/a	0	1	0	n/a	n/a	0.0	0	0	0	catFR3	0	R1243T
1592.407	0.983	1612579	WORD_OFF	n/a	n/a	FOOTBALL	n/a	1	0	15	[0, 0, 0]	n/a	0	1	0	n/a	n/a	0.0	0	0	0	catFR3	0	R1243T
1593.39	1.6	1613562	WORD	n/a	wordpools/wordpool.txt	DOLL	Toys	2	1	15	[0, 0, 0]	n/a	0	1	0	n/a	n/a	0.0	0	0	0	catFR3	0	R1243T
1593.594	0.5	1613766	STIM_ON	n/a	n/a	DOLL	n/a	2	1	15	[0, 0, 0]	n/a	1	1	500	LB8	LB9	750.0	100	50	300	catFR3	0	R1243T
1594.084	0.923	1614256	STIM_OFF	n/a	n/a	n/a	n/a	2	0	15	[0, 0, 0]	n/a	0	1	500	LB8	LB9	750.0	100	50	300	catFR3	0	R1243T
1595.007	0.867	1615179	WORD_OFF	n/a	n/a	DOLL	n/a	2	0	15	[0, 0, 0]	n/a	0	1	0	n/a	n/a	0.0	0	0	0	catFR3	0	R1243T
1595.874	1.6	1616046	WORD	n/a	wordpools/wordpool.txt	DESK	Furniture	3	1	15	[0, 0, 0]	n/a	0	1	0	n/a	n/a	0.0	0	0	0	catFR3	0	R1243T
1597.491	0.85	1617663	WORD_OFF	n/a	n/a	DESK	n/a	3	0	15	[0, 0, 0]	n/a	0	1	0	n/a	n/a	0.0	0	0	0	catFR3	0	R1243T
1598.341	1.6	1618513	WORD	n/a	wordpools/wordpool.txt	SHELF	Furniture	4	0	15	[0, 0, 0]	n/a	0	1	0	n/a	n/a	0.0	0	0	0	catFR3	0	R1243T
1599.958	0.983	1620130	WORD_OFF	n/a	n/a	SHELF	n/a	4	0	15	[0, 0, 0]	n/a	0	1	0	n/a	n/a	0.0	0	0	0	catFR3	0	R1243T
1600.941	1.6	1621113	WORD	n/a	wordpools/wordpool.txt	MARKER	OfficeSupplies	5	0	15	[0, 0, 0]	n/a	0	1	0	n/a	n/a	0.0	0	0	0	catFR3	0	R1243T
1601.151	0.5	1621323	STIM_ON	n/a	n/a	MARKER	n/a	5	0	15	[0, 0, 0]	n/a	1	1	500	LB8	LB9	750.0	100	50	300	catFR3	0	R1243T
1601.641	0.916	1621813	STIM_OFF	n/a	n/a	n/a	n/a	5	0	15	[0, 0, 0]	n/a	0	1	500	LB8	LB9	750.0	100	50	300	catFR3	0	R1243T
1602.557	1.001	1622729	WORD_OFF	n/a	n/a	MARKER	n/a	5	0	15	[0, 0, 0]	n/a	0	1	0	n/a	n/a	0.0	0	0	0	catFR3	0	R1243T
1603.558	1.6	1623730	WORD	n/a	wordpools/wordpool.txt	NOTEBOOK	OfficeSupplies	6	0	15	[0, 0, 0]	n/a	0	1	0	n/a	n/a	0.0	0	0	0	catFR3	0	R1243T
1603.77	0.5	1623942	STIM_ON	n/a	n/a	NOTEBOOK	n/a	6	0	15	[0, 0, 0]	n/a	1	1	500	LB8	LB9	750.0	100	50	300	catFR3	0	R1243T
1604.26	0.915	1624432	STIM_OFF	n/a	n/a	n/a	n/a	6	0	15	[0, 0, 0]	n/a	0	1	500	LB8	LB9	750.0	100	50	300	catFR3	0	R1243T
1605.175	0.917	1625347	WORD_OFF	n/a	n/a	NOTEBOOK	n/a	6	0	15	[0, 0, 0]	n/a	0	1	0	n/a	n/a	0.0	0	0	0	catFR3	0	R1243T
1606.092	1.6	1626264	WORD	n/a	wordpools/wordpool.txt	NIGHTSTAND	Furniture	7	1	15	[0, 0, 0]	n/a	0	1	0	n/a	n/a	0.0	0	0	0	catFR3	0	R1243T
1607.709	0.784	1627880	WORD_OFF	n/a	n/a	NIGHTSTAND	n/a	7	0	15	[0, 0, 0]	n/a	0	1	0	n/a	n/a	0.0	0	0	0	catFR3	0	R1243T
1608.493	1.6	1628664	WORD	n/a	wordpools/wordpool.txt	CABINET	Furniture	8	1	15	[0, 0, 0]	n/a	0	1	0	n/a	n/a	0.0	0	0	0	catFR3	0	R1243T
1608.701	0.5	1628872	STIM_ON	n/a	n/a	CABINET	n/a	8	1	15	[0, 0, 0]	n/a	1	1	500	LB8	LB9	750.0	100	50	300	catFR3	0	R1243T
1609.191	0.919	1629362	STIM_OFF	n/a	n/a	n/a	n/a	8	0	15	[0, 0, 0]	n/a	0	1	500	LB8	LB9	750.0	100	50	300	catFR3	0	R1243T
1610.11	0.9	1630281	WORD_OFF	n/a	n/a	CABINET	n/a	8	0	15	[0, 0, 0]	n/a	0	1	0	n/a	n/a	0.0	0	0	0	catFR3	0	R1243T
1611.01	1.6	1631181	WORD	n/a	wordpools/wordpool.txt	BARBIE	Toys	9	1	15	[0, 0, 0]	n/a	0	1	0	n/a	n/a	0.0	0	0	0	catFR3	0	R1243T
1612.626	0.884	1632797	WORD_OFF	n/a	n/a	BARBIE	n/a	9	0	15	[0, 0, 0]	n/a	0	1	0	n/a	n/a	0.0	0	0	0	catFR3	0	R1243T
1613.51	1.6	1633681	WORD	n/a	wordpools/wordpool.txt	BASKETBALL	Toys	10	1	15	[0, 0, 0]	n/a	0	1	0	n/a	n/a	0.0	0	0	0	catFR3	0	R1243T
1615.127	0.784	1635298	WORD_OFF	n/a	n/a	BASKETBALL	n/a	10	0	15	[0, 0, 0]	n/a	0	1	0	n/a	n/a	0.0	0	0	0	catFR3	0	R1243T
1615.911	1.6	1636082	WORD	n/a	wordpools/wordpool.txt	PAPER	OfficeSupplies	11	1	15	[0, 0, 0]	n/a	0	1	0	n/a	n/a	0.0	0	0	0	catFR3	0	R1243T
1616.124	0.5	1636295	STIM_ON	n/a	n/a	PAPER	n/a	11	1	15	[0, 0, 0]	n/a	1	1	500	LB8	LB9	750.0	100	50	300	catFR3	0	R1243T
1616.614	0.914	1636785	STIM_OFF	n/a	n/a	n/a	n/a	11	0	15	[0, 0, 0]	n/a	0	1	500	LB8	LB9	750.0	100	50	300	catFR3	0	R1243T
1617.528	0.917	1637699	WORD_OFF	n/a	n/a	PAPER	n/a	11	0	15	[0, 0, 0]	n/a	0	1	0	n/a	n/a	0.0	0	0	0	catFR3	0	R1243T
1618.445	1.6	1638616	WORD	n/a	wordpools/wordpool.txt	ERASER	OfficeSupplies	12	0	15	[0, 0, 0]	n/a	0	1	0	n/a	n/a	0.0	0	0	0	catFR3	0	R1243T
1618.66	0.5	1638831	STIM_ON	n/a	n/a	n/a	n/a	11	0	15	[0, 0, 0]	n/a	1	1	500	LB8	LB9	750.0	100	50	300	catFR3	0	R1243T
1619.15	0.912	1639321	STIM_OFF	n/a	n/a	n/a	n/a	11	0	15	[0, 0, 0]	n/a	0	1	500	LB8	LB9	750.0	100	50	300	catFR3	0	R1243T
1620.062	0.0	1640233	ENCODING_END	n/a	n/a	n/a	n/a	-999	0	15	[0, 0, 0]	n/a	0	1	0	n/a	n/a	0.0	0	0	0	catFR3	0	R1243T
1620.062	0.059	1640233	WORD_OFF	n/a	n/a	ERASER	n/a	12	0	15	[0, 0, 0]	n/a	0	1	0	n/a	n/a	0.0	0	0	0	catFR3	0	R1243T
1620.121	0.0	1640292	DISTRACT_START	n/a	n/a	n/a	n/a	-999	0	15	[0, 0, 0]	n/a	0	1	0	n/a	n/a	0.0	0	0	0	catFR3	0	R1243T
1620.121	0.007	1640292	START	n/a	n/a	n/a	n/a	-999	0	15	[-999, -999, -999]	n/a	0	1	0	n/a	n/a	0.0	0	0	0	catFR3	0	R1243T
1620.128	3.483	1640299	PROB	3.455	n/a	n/a	n/a	-999	0	15	[3, 1, 8]	12	0	1	0	n/a	n/a	0.0	0	0	0	catFR3	0	R1243T
1623.611	3.235	1643781	PROB	3.211	n/a	n/a	n/a	-999	0	15	[9, 8, 2]	19	0	1	0	n/a	n/a	0.0	0	0	0	catFR3	0	R1243T
1626.846	4.968	1647016	PROB	4.937	n/a	n/a	n/a	-999	0	15	[9, 5, 4]	18	0	1	0	n/a	n/a	0.0	0	0	0	catFR3	0	R1243T
1631.814	2.684	1651984	PROB	2.65	n/a	n/a	n/a	-999	0	15	[1, 9, 1]	11	0	1	0	n/a	n/a	0.0	0	0	0	catFR3	0	R1243T
1634.498	4.149	1654668	PROB	4.125	n/a	n/a	n/a	-999	0	15	[5, 2, 7]	14	0	1	0	n/a	n/a	0.0	0	0	0	catFR3	0	R1243T
1638.647	3.097	1658817	PROB	3.097	n/a	n/a	n/a	-999	0	15	[4, 4, 4]	12	0	1	0	n/a	n/a	0.0	0	0	0	catFR3	0	R1243T
1641.744	0.022	1661913	STOP	n/a	n/a	n/a	n/a	-999	0	15	[-999, -999, -999]	n/a	0	1	0	n/a	n/a	0.0	0	0	0	catFR3	0	R1243T
1641.766	0.566	1661935	DISTRACT_END	n/a	n/a	n/a	n/a	-999	0	15	[0, 0, 0]	n/a	0	1	0	n/a	n/a	0.0	0	0	0	catFR3	0	R1243T
1642.332	0.5	1662501	RETRIEVAL_ORIENT	n/a	n/a	n/a	n/a	-999	0	15	[0, 0, 0]	n/a	0	1	0	n/a	n/a	0.0	0	0	0	catFR3	0	R1243T
1642.85	1.725	1663019	REC_START	n/a	n/a	n/a	n/a	-999	0	15	[0, 0, 0]	n/a	0	1	0	n/a	n/a	0.0	0	0	0	catFR3	0	R1243T
1644.575	0.981	1664744	REC_WORD	1.725	n/a	PAPER	OfficeSupplies	11	1	15	[0, 0, 0]	n/a	0	1	0	n/a	n/a	0.0	0	0	0	catFR3	0	R1243T
1645.556	1.029	1665725	REC_WORD	2.706	n/a	DESK	Furniture	3	1	15	[0, 0, 0]	n/a	0	1	0	n/a	n/a	0.0	0	0	0	catFR3	0	R1243T
1646.585	0.997	1666754	REC_WORD	3.735	n/a	CABINET	Furniture	8	1	15	[0, 0, 0]	n/a	0	1	0	n/a	n/a	0.0	0	0	0	catFR3	0	R1243T
1647.582	3.32	1667751	REC_WORD	4.732	n/a	NIGHTSTAND	Furniture	7	1	15	[0, 0, 0]	n/a	0	1	0	n/a	n/a	0.0	0	0	0	catFR3	0	R1243T
1650.902	1.535	1671071	REC_WORD	8.052	n/a	DOLL	Toys	2	1	15	[0, 0, 0]	n/a	0	1	0	n/a	n/a	0.0	0	0	0	catFR3	0	R1243T
1652.437	2.286	1672606	REC_WORD	9.587	n/a	BARBIE	Toys	9	1	15	[0, 0, 0]	n/a	0	1	0	n/a	n/a	0.0	0	0	0	catFR3	0	R1243T
1654.723	1.387	1674892	REC_WORD	11.873	n/a	FOOTBALL	Toys	1	1	15	[0, 0, 0]	n/a	0	1	0	n/a	n/a	0.0	0	0	0	catFR3	0	R1243T
1656.11	16.75	1676278	REC_WORD	13.26	n/a	BASKETBALL	Toys	10	1	15	[0, 0, 0]	n/a	0	1	0	n/a	n/a	0.0	0	0	0	catFR3	0	R1243T
1672.86	5.129	1693027	REC_END	n/a	n/a	n/a	n/a	-999	0	15	[0, 0, 0]	n/a	0	1	0	n/a	n/a	0.0	0	0	0	catFR3	0	R1243T
1677.989	0.5	1698156	TRIAL	n/a	n/a	n/a	n/a	-999	0	16	[0, 0, 0]	n/a	0	0	0	n/a	n/a	0.0	0	0	0	catFR3	0	R1243T
1678.489	10.0	1698656	COUNTDOWN_START	n/a	n/a	n/a	n/a	-999	0	16	[0, 0, 0]	n/a	0	0	0	n/a	n/a	0.0	0	0	0	catFR3	0	R1243T
1688.917	0.007	1709083	COUNTDOWN_END	n/a	n/a	n/a	n/a	-999	0	16	[0, 0, 0]	n/a	0	0	0	n/a	n/a	0.0	0	0	0	catFR3	0	R1243T
1688.924	1.6	1709090	ORIENT	n/a	n/a	n/a	n/a	-999	0	16	[0, 0, 0]	n/a	0	0	0	n/a	n/a	0.0	0	0	0	catFR3	0	R1243T
1690.54	1.935	1710706	ORIENT_OFF	n/a	n/a	n/a	n/a	-999	0	16	[0, 0, 0]	n/a	0	0	0	n/a	n/a	0.0	0	0	0	catFR3	0	R1243T
1692.475	1.6	1712641	WORD	n/a	wordpools/wordpool.txt	FREEZER	Appliances	1	0	16	[0, 0, 0]	n/a	0	0	0	n/a	n/a	0.0	0	0	0	catFR3	0	R1243T
1694.092	0.883	1714258	WORD_OFF	n/a	n/a	FREEZER	n/a	1	0	16	[0, 0, 0]	n/a	0	0	0	n/a	n/a	0.0	0	0	0	catFR3	0	R1243T
1694.975	1.6	1715141	WORD	n/a	wordpools/wordpool.txt	DISHWASHER	Appliances	2	1	16	[0, 0, 0]	n/a	0	0	0	n/a	n/a	0.0	0	0	0	catFR3	0	R1243T
1696.591	1.0	1716757	WORD_OFF	n/a	n/a	DISHWASHER	n/a	2	0	16	[0, 0, 0]	n/a	0	0	0	n/a	n/a	0.0	0	0	0	catFR3	0	R1243T
1697.591	1.6	1717757	WORD	n/a	wordpools/wordpool.txt	SPINACH	Vegetables	3	0	16	[0, 0, 0]	n/a	0	0	0	n/a	n/a	0.0	0	0	0	catFR3	0	R1243T
1699.209	0.967	1719375	WORD_OFF	n/a	n/a	SPINACH	n/a	3	0	16	[0, 0, 0]	n/a	0	0	0	n/a	n/a	0.0	0	0	0	catFR3	0	R1243T
1700.176	1.6	1720342	WORD	n/a	wordpools/wordpool.txt	BROCCOLI	Vegetables	4	0	16	[0, 0, 0]	n/a	0	0	0	n/a	n/a	0.0	0	0	0	catFR3	0	R1243T
1701.793	0.882	1721959	WORD_OFF	n/a	n/a	BROCCOLI	n/a	4	0	16	[0, 0, 0]	n/a	0	0	0	n/a	n/a	0.0	0	0	0	catFR3	0	R1243T
1702.675	1.6	1722841	WORD	n/a	wordpools/wordpool.txt	PEELER	KitchenTools	5	0	16	[0, 0, 0]	n/a	0	0	0	n/a	n/a	0.0	0	0	0	catFR3	0	R1243T
1704.277	1.017	1724443	WORD_OFF	n/a	n/a	PEELER	n/a	5	0	16	[0, 0, 0]	n/a	0	0	0	n/a	n/a	0.0	0	0	0	catFR3	0	R1243T
