onset	duration	sample	trial_type	response_time	stim_file	item_name	category	serialpos	recalled	list	test	answer	stimulation	stim_list	stim_duration	anode_label	cathode_label	amplitude	pulse_freq	n_pulses	pulse_width	experiment	session	subject
0.0	0.0	47884	INSTRUCT_START	n/a	n/a	n/a	n/a	-999	0	-999	[0, 0, 0]	n/a	0	0	0	n/a	n/a	0.0	0	0	0	catFR3	0	R1260D
0.0	10.951	47884	INSTRUCT_END	n/a	n/a	n/a	n/a	-999	0	-999	[0, 0, 0]	n/a	0	0	0	n/a	n/a	0.0	0	0	0	catFR3	0	R1260D
10.951	0.0	58834	SESS_START	n/a	n/a	n/a	n/a	-999	0	-999	[0, 0, 0]	n/a	0	0	0	n/a	n/a	0.0	0	0	0	catFR3	0	R1260D
10.951	92.634	58834	MIC_TEST	n/a	n/a	n/a	n/a	-999	0	-999	[0, 0, 0]	n/a	0	0	0	n/a	n/a	0.0	0	0	0	catFR3	0	R1260D
103.585	10.685	151463	PRACTICE_TRIAL	n/a	n/a	n/a	n/a	-999	0	-1	[0, 0, 0]	n/a	0	0	0	n/a	n/a	0.0	0	0	0	catFR3	0	R1260D
114.27	10.0	162147	COUNTDOWN_START	n/a	n/a	n/a	n/a	-999	0	-1	[0, 0, 0]	n/a	0	0	0	n/a	n/a	0.0	0	0	0	catFR3	0	R1260D
124.698	0.007	172575	COUNTDOWN_END	n/a	n/a	n/a	n/a	-999	0	-1	[0, 0, 0]	n/a	0	0	0	n/a	n/a	0.0	0	0	0	catFR3	0	R1260D
124.705	1.6	172582	PRACTICE_ORIENT	n/a	n/a	n/a	n/a	-999	0	-1	[0, 0, 0]	n/a	0	0	0	n/a	n/a	0.0	0	0	0	catFR3	0	R1260D
126.306	1.968	174183	PRACTICE_ORIENT_OFF	n/a	n/a	n/a	n/a	-999	0	-1	[0, 0, 0]	n/a	0	0	0	n/a	n/a	0.0	0	0	0	catFR3	0	R1260D
128.274	1.6	176150	PRACTICE_WORD	n/a	n/a	RHINO	n/a	1	0	-1	[0, 0, 0]	n/a	0	0	0	n/a	n/a	0.0	0	0	0	catFR3	0	R1260D
129.891	0.815	177767	PRACTICE_WORD_OFF	n/a	n/a	RHINO	n/a	-999	0	-1	[0, 0, 0]	n/a	0	0	0	n/a	n/a	0.0	0	0	0	catFR3	0	R1260D
130.706	1.6	178582	PRACTICE_WORD	n/a	n/a	RING	n/a	2	0	-1	[0, 0, 0]	n/a	0	0	0	n/a	n/a	0.0	0	0	0	catFR3	0	R1260D
132.324	0.834	180200	PRACTICE_WORD_OFF	n/a	n/a	RING	n/a	-999	0	-1	[0, 0, 0]	n/a	0	0	0	n/a	n/a	0.0	0	0	0	catFR3	0	R1260D
133.158	1.6	181034	PRACTICE_WORD	n/a	n/a	COTTON	n/a	3	0	-1	[0, 0, 0]	n/a	0	0	0	n/a	n/a	0.0	0	0	0	catFR3	0	R1260D
134.774	0.768	182650	PRACTICE_WORD_OFF	n/a	n/a	COTTON	n/a	-999	0	-1	[0, 0, 0]	n/a	0	0	0	n/a	n/a	0.0	0	0	0	catFR3	0	R1260D
135.542	1.6	183418	PRACTICE_WORD	n/a	n/a	CAMEL	n/a	4	0	-1	[0, 0, 0]	n/a	0	0	0	n/a	n/a	0.0	0	0	0	catFR3	0	R1260D
137.159	0.916	185035	PRACTICE_WORD_OFF	n/a	n/a	CAMEL	n/a	-999	0	-1	[0, 0, 0]	n/a	0	0	0	n/a	n/a	0.0	0	0	0	catFR3	0	R1260D
138.075	1.6	185951	PRACTICE_WORD	n/a	n/a	TONGUE	n/a	5	0	-1	[0, 0, 0]	n/a	0	0	0	n/a	n/a	0.0	0	0	0	catFR3	0	R1260D
139.691	0.801	187567	PRACTICE_WORD_OFF	n/a	n/a	TONGUE	n/a	-999	0	-1	[0, 0, 0]	n/a	0	0	0	n/a	n/a	0.0	0	0	0	catFR3	0	R1260D
140.492	1.6	188368	PRACTICE_WORD	n/a	n/a	CHEST	n/a	6	0	-1	[0, 0, 0]	n/a	0	0	0	n/a	n/a	0.0	0	0	0	catFR3	0	R1260D
142.11	1.0	189986	PRACTICE_WORD_OFF	n/a	n/a	CHEST	n/a	-999	0	-1	[0, 0, 0]	n/a	0	0	0	n/a	n/a	0.0	0	0	0	catFR3	0	R1260D
143.11	1.6	190986	PRACTICE_WORD	n/a	n/a	FLOOD	n/a	7	0	-1	[0, 0, 0]	n/a	0	0	0	n/a	n/a	0.0	0	0	0	catFR3	0	R1260D
144.726	0.883	192602	PRACTICE_WORD_OFF	n/a	n/a	FLOOD	n/a	-999	0	-1	[0, 0, 0]	n/a	0	0	0	n/a	n/a	0.0	0	0	0	catFR3	0	R1260D
145.609	1.6	193485	PRACTICE_WORD	n/a	n/a	IRON	n/a	8	0	-1	[0, 0, 0]	n/a	0	0	0	n/a	n/a	0.0	0	0	0	catFR3	0	R1260D
147.227	0.884	195102	PRACTICE_WORD_OFF	n/a	n/a	IRON	n/a	-999	0	-1	[0, 0, 0]	n/a	0	0	0	n/a	n/a	0.0	0	0	0	catFR3	0	R1260D
148.111	1.6	195986	PRACTICE_WORD	n/a	n/a	WATCH	n/a	9	0	-1	[0, 0, 0]	n/a	0	0	0	n/a	n/a	0.0	0	0	0	catFR3	0	R1260D
149.727	0.933	197602	PRACTICE_WORD_OFF	n/a	n/a	WATCH	n/a	-999	0	-1	[0, 0, 0]	n/a	0	0	0	n/a	n/a	0.0	0	0	0	catFR3	0	R1260D
150.66	1.6	198535	PRACTICE_WORD	n/a	n/a	BEAM	n/a	10	0	-1	[0, 0, 0]	n/a	0	0	0	n/a	n/a	0.0	0	0	0	catFR3	0	R1260D
152.278	1.017	200153	PRACTICE_WORD_OFF	n/a	n/a	BEAM	n/a	-999	0	-1	[0, 0, 0]	n/a	0	0	0	n/a	n/a	0.0	0	0	0	catFR3	0	R1260D
153.295	1.6	201170	PRACTICE_WORD	n/a	n/a	ATTIC	n/a	11	0	-1	[0, 0, 0]	n/a	0	0	0	n/a	n/a	0.0	0	0	0	catFR3	0	R1260D
154.912	0.782	202787	PRACTICE_WORD_OFF	n/a	n/a	ATTIC	n/a	-999	0	-1	[0, 0, 0]	n/a	0	0	0	n/a	n/a	0.0	0	0	0	catFR3	0	R1260D
155.694	1.6	203569	PRACTICE_WORD	n/a	n/a	WAGON	n/a	12	0	-1	[0, 0, 0]	n/a	0	0	0	n/a	n/a	0.0	0	0	0	catFR3	0	R1260D
157.295	0.001	205170	PRACTICE_WORD_OFF	n/a	n/a	WAGON	n/a	-999	0	-1	[0, 0, 0]	n/a	0	0	0	n/a	n/a	0.0	0	0	0	catFR3	0	R1260D
157.296	0.0	205171	ENCODING_END	n/a	n/a	n/a	n/a	-999	0	-1	[0, 0, 0]	n/a	0	0	0	n/a	n/a	0.0	0	0	0	catFR3	0	R1260D
157.296	0.0	205171	DISTRACT_START	n/a	n/a	n/a	n/a	-999	0	-1	[0, 0, 0]	n/a	0	0	0	n/a	n/a	0.0	0	0	0	catFR3	0	R1260D
157.296	0.016	205171	START	n/a	n/a	n/a	n/a	-999	0	-1	[-999, -999, -999]	n/a	0	0	0	n/a	n/a	0.0	0	0	0	catFR3	0	R1260D
157.312	4.317	205187	PROB	4.284	n/a	n/a	n/a	-999	0	-1	[8, 2, 4]	14	0	0	0	n/a	n/a	0.0	0	0	0	catFR3	0	R1260D
161.629	4.402	209504	PROB	4.376	n/a	n/a	n/a	-999	0	-1	[5, 7, 7]	10	0	0	0	n/a	n/a	0.0	0	0	0	catFR3	0	R1260D
166.031	16.03	213905	PROB	16.03	n/a	n/a	n/a	-999	0	-1	[8, 9, 4]	21	0	0	0	n/a	n/a	0.0	0	0	0	catFR3	0	R1260D
182.061	0.006	229935	STOP	n/a	n/a	n/a	n/a	-999	0	-1	[-999, -999, -999]	n/a	0	0	0	n/a	n/a	0.0	0	0	0	catFR3	0	R1260D
182.067	0.716	229941	DISTRACT_END	n/a	n/a	n/a	n/a	-999	0	-1	[0, 0, 0]	n/a	0	0	0	n/a	n/a	0.0	0	0	0	catFR3	0	R1260D
182.783	0.5	230656	RETRIEVAL_ORIENT	n/a	n/a	n/a	n/a	-999	0	-1	[0, 0, 0]	n/a	0	0	0	n/a	n/a	0.0	0	0	0	catFR3	0	R1260D
183.304	30.01	231177	PRACTICE_REC_START	n/a	n/a	n/a	n/a	-999	0	-1	[0, 0, 0]	n/a	0	0	0	n/a	n/a	0.0	0	0	0	catFR3	0	R1260D
213.314	37.199	261186	PRACTICE_REC_END	n/a	n/a	n/a	n/a	-999	0	-1	[0, 0, 0]	n/a	0	0	0	n/a	n/a	0.0	0	0	0	catFR3	0	R1260D
250.513	0.5	298383	TRIAL	n/a	n/a	n/a	n/a	-999	0	1	[0, 0, 0]	n/a	0	0	0	n/a	n/a	0.0	0	0	0	catFR3	0	R1260D
251.013	10.0	298883	COUNTDOWN_START	n/a	n/a	n/a	n/a	-999	0	1	[0, 0, 0]	n/a	0	0	0	n/a	n/a	0.0	0	0	0	catFR3	0	R1260D
261.441	0.007	309310	COUNTDOWN_END	n/a	n/a	n/a	n/a	-999	0	1	[0, 0, 0]	n/a	0	0	0	n/a	n/a	0.0	0	0	0	catFR3	0	R1260D
261.448	1.6	309317	ORIENT	n/a	n/a	n/a	n/a	-999	0	1	[0, 0, 0]	n/a	0	0	0	n/a	n/a	0.0	0	0	0	catFR3	0	R1260D
263.065	2.134	310934	ORIENT_OFF	n/a	n/a	n/a	n/a	-999	0	1	[0, 0, 0]	n/a	0	0	0	n/a	n/a	0.0	0	0	0	catFR3	0	R1260D
265.199	1.6	313068	WORD	n/a	wordpools/wordpool.txt	FLOOR	Building	1	1	1	[0, 0, 0]	n/a	0	0	0	n/a	n/a	0.0	0	0	0	catFR3	0	R1260D
266.815	0.8	314684	WORD_OFF	n/a	n/a	FLOOR	n/a	1	0	1	[0, 0, 0]	n/a	0	0	0	n/a	n/a	0.0	0	0	0	catFR3	0	R1260D
267.615	1.6	315484	WORD	n/a	wordpools/wordpool.txt	WINDOW	Building	2	0	1	[0, 0, 0]	n/a	0	0	0	n/a	n/a	0.0	0	0	0	catFR3	0	R1260D
269.216	0.867	317085	WORD_OFF	n/a	n/a	WINDOW	n/a	2	0	1	[0, 0, 0]	n/a	0	0	0	n/a	n/a	0.0	0	0	0	catFR3	0	R1260D
270.083	1.6	317952	WORD	n/a	wordpools/wordpool.txt	ROSE	Flowers	3	0	1	[0, 0, 0]	n/a	0	0	0	n/a	n/a	0.0	0	0	0	catFR3	0	R1260D
271.699	0.818	319568	WORD_OFF	n/a	n/a	ROSE	n/a	3	0	1	[0, 0, 0]	n/a	0	0	0	n/a	n/a	0.0	0	0	0	catFR3	0	R1260D
272.517	1.6	320385	WORD	n/a	wordpools/wordpool.txt	CARNATION	Flowers	4	0	1	[0, 0, 0]	n/a	0	0	0	n/a	n/a	0.0	0	0	0	catFR3	0	R1260D
274.134	0.933	322002	WORD_OFF	n/a	n/a	CARNATION	n/a	4	0	1	[0, 0, 0]	n/a	0	0	0	n/a	n/a	0.0	0	0	0	catFR3	0	R1260D
275.067	1.6	322935	WORD	n/a	wordpools/wordpool.txt	CHICKEN	FarmAnimals	5	0	1	[0, 0, 0]	n/a	0	0	0	n/a	n/a	0.0	0	0	0	catFR3	0	R1260D
276.683	0.867	324551	WORD_OFF	n/a	n/a	CHICKEN	n/a	5	0	1	[0, 0, 0]	n/a	0	0	0	n/a	n/a	0.0	0	0	0	catFR3	0	R1260D
277.55	1.6	325418	WORD	n/a	wordpools/wordpool.txt	PIG	FarmAnimals	6	0	1	[0, 0, 0]	n/a	0	0	0	n/a	n/a	0.0	0	0	0	catFR3	0	R1260D
279.168	0.867	327036	WORD_OFF	n/a	n/a	PIG	n/a	6	0	1	[0, 0, 0]	n/a	0	0	0	n/a	n/a	0.0	0	0	0	catFR3	0	R1260D
280.035	1.6	327903	WORD	n/a	wordpools/wordpool.txt	SUNFLOWER	Flowers	7	0	1	[0, 0, 0]	n/a	0	0	0	n/a	n/a	0.0	0	0	0	catFR3	0	R1260D
281.651	0.933	329519	WORD_OFF	n/a	n/a	SUNFLOWER	n/a	7	0	1	[0, 0, 0]	n/a	0	0	0	n/a	n/a	0.0	0	0	0	catFR3	0	R1260D
282.584	1.6	330452	WORD	n/a	wordpools/wordpool.txt	LILAC	Flowers	8	0	1	[0, 0, 0]	n/a	0	0	0	n/a	n/a	0.0	0	0	0	catFR3	0	R1260D
284.202	0.884	332070	WORD_OFF	n/a	n/a	LILAC	n/a	8	0	1	[0, 0, 0]	n/a	0	0	0	n/a	n/a	0.0	0	0	0	catFR3	0	R1260D
285.086	1.6	332954	WORD	n/a	wordpools/wordpool.txt	DOOR	Building	9	0	1	[0, 0, 0]	n/a	0	0	0	n/a	n/a	0.0	0	0	0	catFR3	0	R1260D
286.702	0.784	334570	WORD_OFF	n/a	n/a	DOOR	n/a	9	0	1	[0, 0, 0]	n/a	0	0	0	n/a	n/a	0.0	0	0	0	catFR3	0	R1260D
287.486	1.6	335354	WORD	n/a	wordpools/wordpool.txt	ROOF	Building	10	0	1	[0, 0, 0]	n/a	0	0	0	n/a	n/a	0.0	0	0	0	catFR3	0	R1260D
289.103	0.967	336971	WORD_OFF	n/a	n/a	ROOF	n/a	10	0	1	[0, 0, 0]	n/a	0	0	0	n/a	n/a	0.0	0	0	0	catFR3	0	R1260D
290.07	1.6	337938	WORD	n/a	wordpools/wordpool.txt	LAMB	FarmAnimals	11	0	1	[0, 0, 0]	n/a	0	0	0	n/a	n/a	0.0	0	0	0	catFR3	0	R1260D
291.686	1.0	339553	WORD_OFF	n/a	n/a	LAMB	n/a	11	0	1	[0, 0, 0]	n/a	0	0	0	n/a	n/a	0.0	0	0	0	catFR3	0	R1260D
292.686	1.6	340553	WORD	n/a	wordpools/wordpool.txt	CALF	FarmAnimals	12	0	1	[0, 0, 0]	n/a	0	0	0	n/a	n/a	0.0	0	0	0	catFR3	0	R1260D
294.304	0.0	342171	ENCODING_END	n/a	n/a	n/a	n/a	-999	0	1	[0, 0, 0]	n/a	0	0	0	n/a	n/a	0.0	0	0	0	catFR3	0	R1260D
294.304	0.057	342171	WORD_OFF	n/a	n/a	CALF	n/a	12	0	1	[0, 0, 0]	n/a	0	0	0	n/a	n/a	0.0	0	0	0	catFR3	0	R1260D
294.361	0.0	342228	DISTRACT_START	n/a	n/a	n/a	n/a	-999	0	1	[0, 0, 0]	n/a	0	0	0	n/a	n/a	0.0	0	0	0	catFR3	0	R1260D
294.361	0.01	342228	START	n/a	n/a	n/a	n/a	-999	0	1	[-999, -999, -999]	n/a	0	0	0	n/a	n/a	0.0	0	0	0	catFR3	0	R1260D
294.371	5.2	342238	PROB	5.177	n/a	n/a	n/a	-999	0	1	[1, 7, 3]	11	0	0	0	n/a	n/a	0.0	0	0	0	catFR3	0	R1260D
299.571	6.001	347438	PROB	5.978	n/a	n/a	n/a	-999	0	1	[9, 7, 2]	19	0	0	0	n/a	n/a	0.0	0	0	0	catFR3	0	R1260D
305.572	7.485	353439	PROB	7.449	n/a	n/a	n/a	-999	0	1	[2, 7, 8]	17	0	0	0	n/a	n/a	0.0	0	0	0	catFR3	0	R1260D
313.057	5.1	360923	PROB	5.1	n/a	n/a	n/a	-999	0	1	[1, 9, 6]	16	0	0	0	n/a	n/a	0.0	0	0	0	catFR3	0	R1260D
318.157	0.018	366023	STOP	n/a	n/a	n/a	n/a	-999	0	1	[-999, -999, -999]	n/a	0	0	0	n/a	n/a	0.0	0	0	0	catFR3	0	R1260D
318.175	0.699	366041	DISTRACT_END	n/a	n/a	n/a	n/a	-999	0	1	[0, 0, 0]	n/a	0	0	0	n/a	n/a	0.0	0	0	0	catFR3	0	R1260D
318.874	0.5	366740	RETRIEVAL_ORIENT	n/a	n/a	n/a	n/a	-999	0	1	[0, 0, 0]	n/a	0	0	0	n/a	n/a	0.0	0	0	0	catFR3	0	R1260D
319.393	2.865	367259	REC_START	n/a	n/a	n/a	n/a	-999	0	1	[0, 0, 0]	n/a	0	0	0	n/a	n/a	0.0	0	0	0	catFR3	0	R1260D
322.258	9.666	370124	REC_WORD	2.865	n/a	FLOOR	Building	1	1	1	[0, 0, 0]	n/a	0	0	0	n/a	n/a	0.0	0	0	0	catFR3	0	R1260D
331.924	17.48	379789	REC_WORD_VV	12.531	n/a	<>	n/a	-999	0	1	[0, 0, 0]	n/a	0	0	0	n/a	n/a	0.0	0	0	0	catFR3	0	R1260D
349.404	28.749	397268	REC_END	n/a	n/a	n/a	n/a	-999	0	1	[0, 0, 0]	n/a	0	0	0	n/a	n/a	0.0	0	0	0	catFR3	0	R1260D
378.153	0.5	426016	TRIAL	n/a	n/a	n/a	n/a	-999	0	2	[0, 0, 0]	n/a	0	0	0	n/a	n/a	0.0	0	0	0	catFR3	0	R1260D
378.653	10.0	426516	COUNTDOWN_START	n/a	n/a	n/a	n/a	-999	0	2	[0, 0, 0]	n/a	0	0	0	n/a	n/a	0.0	0	0	0	catFR3	0	R1260D
389.081	0.007	436943	COUNTDOWN_END	n/a	n/a	n/a	n/a	-999	0	2	[0, 0, 0]	n/a	0	0	0	n/a	n/a	0.0	0	0	0	catFR3	0	R1260D
389.088	1.6	436950	ORIENT	n/a	n/a	n/a	n/a	-999	0	2	[0, 0, 0]	n/a	0	0	0	n/a	n/a	0.0	0	0	0	catFR3	0	R1260D
390.704	2.034	438566	ORIENT_OFF	n/a	n/a	n/a	n/a	-999	0	2	[0, 0, 0]	n/a	0	0	0	n/a	n/a	0.0	0	0	0	catFR3	0	R1260D
392.738	1.6	440600	WORD	n/a	wordpools/wordpool.txt	NOSE	BodyParts	1	1	2	[0, 0, 0]	n/a	0	0	0	n/a	n/a	0.0	0	0	0	catFR3	0	R1260D
394.356	0.783	442218	WORD_OFF	n/a	n/a	NOSE	n/a	1	0	2	[0, 0, 0]	n/a	0	0	0	n/a	n/a	0.0	0	0	0	catFR3	0	R1260D
395.139	1.6	443001	WORD	n/a	wordpools/wordpool.txt	ARM	BodyParts	2	0	2	[0, 0, 0]	n/a	0	0	0	n/a	n/a	0.0	0	0	0	catFR3	0	R1260D
396.755	1.0	444617	WORD_OFF	n/a	n/a	ARM	n/a	2	0	2	[0, 0, 0]	n/a	0	0	0	n/a	n/a	0.0	0	0	0	catFR3	0	R1260D
397.755	1.6	445617	WORD	n/a	wordpools/wordpool.txt	CELERY	Vegetables	3	0	2	[0, 0, 0]	n/a	0	0	0	n/a	n/a	0.0	0	0	0	catFR3	0	R1260D
399.356	0.767	447217	WORD_OFF	n/a	n/a	CELERY	n/a	3	0	2	[0, 0, 0]	n/a	0	0	0	n/a	n/a	0.0	0	0	0	catFR3	0	R1260D
400.123	1.6	447984	WORD	n/a	wordpools/wordpool.txt	SPINACH	Vegetables	4	0	2	[0, 0, 0]	n/a	0	0	0	n/a	n/a	0.0	0	0	0	catFR3	0	R1260D
401.739	1.0	449600	WORD_OFF	n/a	n/a	SPINACH	n/a	4	0	2	[0, 0, 0]	n/a	0	0	0	n/a	n/a	0.0	0	0	0	catFR3	0	R1260D
402.739	1.6	450600	WORD	n/a	wordpools/wordpool.txt	WILLOW	Trees	5	0	2	[0, 0, 0]	n/a	0	0	0	n/a	n/a	0.0	0	0	0	catFR3	0	R1260D
404.34	0.818	452201	WORD_OFF	n/a	n/a	WILLOW	n/a	5	0	2	[0, 0, 0]	n/a	0	0	0	n/a	n/a	0.0	0	0	0	catFR3	0	R1260D
405.158	1.6	453019	WORD	n/a	wordpools/wordpool.txt	HICKORY	Trees	6	0	2	[0, 0, 0]	n/a	0	0	0	n/a	n/a	0.0	0	0	0	catFR3	0	R1260D
406.773	1.017	454634	WORD_OFF	n/a	n/a	HICKORY	n/a	6	0	2	[0, 0, 0]	n/a	0	0	0	n/a	n/a	0.0	0	0	0	catFR3	0	R1260D
407.79	1.6	455651	WORD	n/a	wordpools/wordpool.txt	CUCUMBER	Vegetables	7	1	2	[0, 0, 0]	n/a	0	0	0	n/a	n/a	0.0	0	0	0	catFR3	0	R1260D
409.408	0.95	457269	WORD_OFF	n/a	n/a	CUCUMBER	n/a	7	0	2	[0, 0, 0]	n/a	0	0	0	n/a	n/a	0.0	0	0	0	catFR3	0	R1260D
410.358	1.6	458219	WORD	n/a	wordpools/wordpool.txt	CORN	Vegetables	8	0	2	[0, 0, 0]	n/a	0	0	0	n/a	n/a	0.0	0	0	0	catFR3	0	R1260D
411.975	0.783	459836	WORD_OFF	n/a	n/a	CORN	n/a	8	0	2	[0, 0, 0]	n/a	0	0	0	n/a	n/a	0.0	0	0	0	catFR3	0	R1260D
412.758	1.6	460619	WORD	n/a	wordpools/wordpool.txt	KNEE	BodyParts	9	0	2	[0, 0, 0]	n/a	0	0	0	n/a	n/a	0.0	0	0	0	catFR3	0	R1260D
414.359	0.984	462220	WORD_OFF	n/a	n/a	KNEE	n/a	9	0	2	[0, 0, 0]	n/a	0	0	0	n/a	n/a	0.0	0	0	0	catFR3	0	R1260D
415.343	1.6	463204	WORD	n/a	wordpools/wordpool.txt	FINGERS	BodyParts	10	0	2	[0, 0, 0]	n/a	0	0	0	n/a	n/a	0.0	0	0	0	catFR3	0	R1260D
416.96	0.816	464820	WORD_OFF	n/a	n/a	FINGERS	n/a	10	0	2	[0, 0, 0]	n/a	0	0	0	n/a	n/a	0.0	0	0	0	catFR3	0	R1260D
417.776	1.6	465636	WORD	n/a	wordpools/wordpool.txt	EVERGREEN	Trees	11	0	2	[0, 0, 0]	n/a	0	0	0	n/a	n/a	0.0	0	0	0	catFR3	0	R1260D
419.393	0.767	467253	WORD_OFF	n/a	n/a	EVERGREEN	n/a	11	0	2	[0, 0, 0]	n/a	0	0	0	n/a	n/a	0.0	0	0	0	catFR3	0	R1260D
420.16	1.6	468020	WORD	n/a	wordpools/wordpool.txt	WALNUT	Trees	12	0	2	[0, 0, 0]	n/a	0	0	0	n/a	n/a	0.0	0	0	0	catFR3	0	R1260D
421.776	0.0	469636	ENCODING_END	n/a	n/a	n/a	n/a	-999	0	2	[0, 0, 0]	n/a	0	0	0	n/a	n/a	0.0	0	0	0	catFR3	0	R1260D
421.776	0.06	469636	WORD_OFF	n/a	n/a	WALNUT	n/a	12	0	2	[0, 0, 0]	n/a	0	0	0	n/a	n/a	0.0	0	0	0	catFR3	0	R1260D
421.836	0.0	469696	DISTRACT_START	n/a	n/a	n/a	n/a	-999	0	2	[0, 0, 0]	n/a	0	0	0	n/a	n/a	0.0	0	0	0	catFR3	0	R1260D
421.836	0.007	469696	START	n/a	n/a	n/a	n/a	-999	0	2	[-999, -999, -999]	n/a	0	0	0	n/a	n/a	0.0	0	0	0	catFR3	0	R1260D
421.843	5.602	469703	PROB	5.577	n/a	n/a	n/a	-999	0	2	[6, 3, 6]	15	0	0	0	n/a	n/a	0.0	0	0	0	catFR3	0	R1260D
427.445	10.935	475305	PROB	10.897	n/a	n/a	n/a	-999	0	2	[9, 5, 3]	17	0	0	0	n/a	n/a	0.0	0	0	0	catFR3	0	R1260D
438.38	4.857	486239	PROB	4.857	n/a	n/a	n/a	-999	0	2	[1, 1, 6]	8	0	0	0	n/a	n/a	0.0	0	0	0	catFR3	0	R1260D
443.237	0.011	491096	STOP	n/a	n/a	n/a	n/a	-999	0	2	[-999, -999, -999]	n/a	0	0	0	n/a	n/a	0.0	0	0	0	catFR3	0	R1260D
443.248	0.667	491107	DISTRACT_END	n/a	n/a	n/a	n/a	-999	0	2	[0, 0, 0]	n/a	0	0	0	n/a	n/a	0.0	0	0	0	catFR3	0	R1260D
443.915	0.5	491774	RETRIEVAL_ORIENT	n/a	n/a	n/a	n/a	-999	0	2	[0, 0, 0]	n/a	0	0	0	n/a	n/a	0.0	0	0	0	catFR3	0	R1260D
444.432	3.823	492291	REC_START	n/a	n/a	n/a	n/a	-999	0	2	[0, 0, 0]	n/a	0	0	0	n/a	n/a	0.0	0	0	0	catFR3	0	R1260D
448.255	2.65	496114	REC_WORD	3.823	n/a	NOSE	BodyParts	1	1	2	[0, 0, 0]	n/a	0	0	0	n/a	n/a	0.0	0	0	0	catFR3	0	R1260D
450.905	9.113	498764	REC_WORD_VV	6.473	n/a	<>	n/a	-999	0	2	[0, 0, 0]	n/a	0	0	0	n/a	n/a	0.0	0	0	0	catFR3	0	R1260D
460.018	5.123	507876	REC_WORD	15.586	n/a	CUCUMBER	Vegetables	7	1	2	[0, 0, 0]	n/a	0	0	0	n/a	n/a	0.0	0	0	0	catFR3	0	R1260D
465.141	1.193	512999	REC_WORD	20.709	n/a	CAULIFLOWER	n/a	-999	0	2	[0, 0, 0]	n/a	0	0	0	n/a	n/a	0.0	0	0	0	catFR3	0	R1260D
466.334	1.561	514192	REC_WORD_VV	21.902	n/a	<>	n/a	-999	0	2	[0, 0, 0]	n/a	0	0	0	n/a	n/a	0.0	0	0	0	catFR3	0	R1260D
467.895	6.55	515753	REC_WORD_VV	23.463	n/a	<>	n/a	-999	0	2	[0, 0, 0]	n/a	0	0	0	n/a	n/a	0.0	0	0	0	catFR3	0	R1260D
474.445	8.827	522302	REC_END	n/a	n/a	n/a	n/a	-999	0	2	[0, 0, 0]	n/a	0	0	0	n/a	n/a	0.0	0	0	0	catFR3	0	R1260D
483.272	0.5	531129	TRIAL	n/a	n/a	n/a	n/a	-999	0	3	[0, 0, 0]	n/a	0	0	0	n/a	n/a	0.0	0	0	0	catFR3	0	R1260D
483.772	10.0	531629	COUNTDOWN_START	n/a	n/a	n/a	n/a	-999	0	3	[0, 0, 0]	n/a	0	0	0	n/a	n/a	0.0	0	0	0	catFR3	0	R1260D
494.2	0.007	542056	COUNTDOWN_END	n/a	n/a	n/a	n/a	-999	0	3	[0, 0, 0]	n/a	0	0	0	n/a	n/a	0.0	0	0	0	catFR3	0	R1260D
494.207	1.6	542063	ORIENT	n/a	n/a	n/a	n/a	-999	0	3	[0, 0, 0]	n/a	0	0	0	n/a	n/a	0.0	0	0	0	catFR3	0	R1260D
495.823	2.118	543679	ORIENT_OFF	n/a	n/a	n/a	n/a	-999	0	3	[0, 0, 0]	n/a	0	0	0	n/a	n/a	0.0	0	0	0	catFR3	0	R1260D
497.941	1.6	545797	WORD	n/a	wordpools/wordpool.txt	GNAT	Insects	1	0	3	[0, 0, 0]	n/a	0	0	0	n/a	n/a	0.0	0	0	0	catFR3	0	R1260D
499.557	0.985	547413	WORD_OFF	n/a	n/a	GNAT	n/a	1	0	3	[0, 0, 0]	n/a	0	0	0	n/a	n/a	0.0	0	0	0	catFR3	0	R1260D
500.542	1.6	548398	WORD	n/a	wordpools/wordpool.txt	BEETLE	Insects	2	0	3	[0, 0, 0]	n/a	0	0	0	n/a	n/a	0.0	0	0	0	catFR3	0	R1260D
502.158	0.967	550014	WORD_OFF	n/a	n/a	BEETLE	n/a	2	0	3	[0, 0, 0]	n/a	0	0	0	n/a	n/a	0.0	0	0	0	catFR3	0	R1260D
503.125	1.6	550981	WORD	n/a	wordpools/wordpool.txt	PLANE	Vehicles	3	0	3	[0, 0, 0]	n/a	0	0	0	n/a	n/a	0.0	0	0	0	catFR3	0	R1260D
504.741	0.917	552597	WORD_OFF	n/a	n/a	PLANE	n/a	3	0	3	[0, 0, 0]	n/a	0	0	0	n/a	n/a	0.0	0	0	0	catFR3	0	R1260D
505.658	1.6	553514	WORD	n/a	wordpools/wordpool.txt	TRAIN	Vehicles	4	0	3	[0, 0, 0]	n/a	0	0	0	n/a	n/a	0.0	0	0	0	catFR3	0	R1260D
507.276	0.867	555131	WORD_OFF	n/a	n/a	TRAIN	n/a	4	0	3	[0, 0, 0]	n/a	0	0	0	n/a	n/a	0.0	0	0	0	catFR3	0	R1260D
508.143	1.6	555998	WORD	n/a	wordpools/wordpool.txt	WINE	Beverages	5	0	3	[0, 0, 0]	n/a	0	0	0	n/a	n/a	0.0	0	0	0	catFR3	0	R1260D
509.759	0.983	557614	WORD_OFF	n/a	n/a	WINE	n/a	5	0	3	[0, 0, 0]	n/a	0	0	0	n/a	n/a	0.0	0	0	0	catFR3	0	R1260D
510.742	1.6	558597	WORD	n/a	wordpools/wordpool.txt	RUM	Beverages	6	0	3	[0, 0, 0]	n/a	0	0	0	n/a	n/a	0.0	0	0	0	catFR3	0	R1260D
512.343	1.018	560198	WORD_OFF	n/a	n/a	RUM	n/a	6	0	3	[0, 0, 0]	n/a	0	0	0	n/a	n/a	0.0	0	0	0	catFR3	0	R1260D
513.361	1.6	561216	WORD	n/a	wordpools/wordpool.txt	BIKE	Vehicles	7	0	3	[0, 0, 0]	n/a	0	0	0	n/a	n/a	0.0	0	0	0	catFR3	0	R1260D
514.978	0.882	562833	WORD_OFF	n/a	n/a	BIKE	n/a	7	0	3	[0, 0, 0]	n/a	0	0	0	n/a	n/a	0.0	0	0	0	catFR3	0	R1260D
515.86	1.6	563715	WORD	n/a	wordpools/wordpool.txt	BUS	Vehicles	8	0	3	[0, 0, 0]	n/a	0	0	0	n/a	n/a	0.0	0	0	0	catFR3	0	R1260D
517.478	0.9	565333	WORD_OFF	n/a	n/a	BUS	n/a	8	0	3	[0, 0, 0]	n/a	0	0	0	n/a	n/a	0.0	0	0	0	catFR3	0	R1260D
518.378	1.6	566233	WORD	n/a	wordpools/wordpool.txt	MOTH	Insects	9	0	3	[0, 0, 0]	n/a	0	0	0	n/a	n/a	0.0	0	0	0	catFR3	0	R1260D
519.995	0.984	567850	WORD_OFF	n/a	n/a	MOTH	n/a	9	0	3	[0, 0, 0]	n/a	0	0	0	n/a	n/a	0.0	0	0	0	catFR3	0	R1260D
520.979	1.6	568834	WORD	n/a	wordpools/wordpool.txt	MOSQUITO	Insects	10	0	3	[0, 0, 0]	n/a	0	0	0	n/a	n/a	0.0	0	0	0	catFR3	0	R1260D
522.595	0.834	570450	WORD_OFF	n/a	n/a	MOSQUITO	n/a	10	0	3	[0, 0, 0]	n/a	0	0	0	n/a	n/a	0.0	0	0	0	catFR3	0	R1260D
523.429	1.6	571284	WORD	n/a	wordpools/wordpool.txt	CIDER	Beverages	11	0	3	[0, 0, 0]	n/a	0	0	0	n/a	n/a	0.0	0	0	0	catFR3	0	R1260D
525.046	0.9	572900	WORD_OFF	n/a	n/a	CIDER	n/a	11	0	3	[0, 0, 0]	n/a	0	0	0	n/a	n/a	0.0	0	0	0	catFR3	0	R1260D
525.946	1.6	573800	WORD	n/a	wordpools/wordpool.txt	COLA	Beverages	12	0	3	[0, 0, 0]	n/a	0	0	0	n/a	n/a	0.0	0	0	0	catFR3	0	R1260D
527.562	0.0	575416	WORD_OFF	n/a	n/a	COLA	n/a	12	0	3	[0, 0, 0]	n/a	0	0	0	n/a	n/a	0.0	0	0	0	catFR3	0	R1260D
527.562	0.081	575416	ENCODING_END	n/a	n/a	n/a	n/a	-999	0	3	[0, 0, 0]	n/a	0	0	0	n/a	n/a	0.0	0	0	0	catFR3	0	R1260D
527.643	0.0	575497	DISTRACT_START	n/a	n/a	n/a	n/a	-999	0	3	[0, 0, 0]	n/a	0	0	0	n/a	n/a	0.0	0	0	0	catFR3	0	R1260D
527.643	0.019	575497	START	n/a	n/a	n/a	n/a	-999	0	3	[-999, -999, -999]	n/a	0	0	0	n/a	n/a	0.0	0	0	0	catFR3	0	R1260D
527.662	11.886	575516	PROB	11.864	n/a	n/a	n/a	-999	0	3	[4, 9, 1]	14	0	0	0	n/a	n/a	0.0	0	0	0	catFR3	0	R1260D
539.548	4.334	587402	PROB	4.296	n/a	n/a	n/a	-999	0	3	[4, 5, 1]	10	0	0	0	n/a	n/a	0.0	0	0	0	catFR3	0	R1260D
543.882	4.554	591735	PROB	4.554	n/a	n/a	n/a	-999	0	3	[8, 5, 4]	17	0	0	0	n/a	n/a	0.0	0	0	0	catFR3	0	R1260D
548.436	0.015	596289	STOP	n/a	n/a	n/a	n/a	-999	0	3	[-999, -999, -999]	n/a	0	0	0	n/a	n/a	0.0	0	0	0	catFR3	0	R1260D
548.451	0.599	596304	DISTRACT_END	n/a	n/a	n/a	n/a	-999	0	3	[0, 0, 0]	n/a	0	0	0	n/a	n/a	0.0	0	0	0	catFR3	0	R1260D
549.05	0.5	596903	RETRIEVAL_ORIENT	n/a	n/a	n/a	n/a	-999	0	3	[0, 0, 0]	n/a	0	0	0	n/a	n/a	0.0	0	0	0	catFR3	0	R1260D
549.567	2.274	597420	REC_START	n/a	n/a	n/a	n/a	-999	0	3	[0, 0, 0]	n/a	0	0	0	n/a	n/a	0.0	0	0	0	catFR3	0	R1260D
551.841	27.737	599694	REC_WORD_VV	2.274	n/a	<>	n/a	-999	0	3	[0, 0, 0]	n/a	0	0	0	n/a	n/a	0.0	0	0	0	catFR3	0	R1260D
579.578	9.262	627429	REC_END	n/a	n/a	n/a	n/a	-999	0	3	[0, 0, 0]	n/a	0	0	0	n/a	n/a	0.0	0	0	0	catFR3	0	R1260D
588.84	0.5	636691	TRIAL	n/a	n/a	n/a	n/a	-999	0	4	[0, 0, 0]	n/a	0	1	0	n/a	n/a	0.0	0	0	0	catFR3	0	R1260D
589.34	10.0	637191	COUNTDOWN_START	n/a	n/a	n/a	n/a	-999	0	4	[0, 0, 0]	n/a	0	1	0	n/a	n/a	0.0	0	0	0	catFR3	0	R1260D
599.768	0.007	647618	COUNTDOWN_END	n/a	n/a	n/a	n/a	-999	0	4	[0, 0, 0]	n/a	0	1	0	n/a	n/a	0.0	0	0	0	catFR3	0	R1260D
599.775	1.6	647625	ORIENT	n/a	n/a	n/a	n/a	-999	0	4	[0, 0, 0]	n/a	0	1	0	n/a	n/a	0.0	0	0	0	catFR3	0	R1260D
601.393	2.017	649243	ORIENT_OFF	n/a	n/a	n/a	n/a	-999	0	4	[0, 0, 0]	n/a	0	1	0	n/a	n/a	0.0	0	0	0	catFR3	0	R1260D
603.41	1.6	651260	WORD	n/a	wordpools/wordpool.txt	MILK	Beverages	1	0	4	[0, 0, 0]	n/a	0	1	0	n/a	n/a	0.0	0	0	0	catFR3	0	R1260D
603.6	0.5	651450	STIM_ON	n/a	n/a	MILK	n/a	1	0	4	[0, 0, 0]	n/a	1	1	500	LLTG22	LLTG23	1250.0	200	100	300	catFR3	0	R1260D
604.1	0.927	651950	STIM_OFF	n/a	n/a	n/a	n/a	1	0	4	[0, 0, 0]	n/a	0	1	500	LLTG22	LLTG23	1250.0	200	100	300	catFR3	0	R1260D
605.027	0.849	652877	WORD_OFF	n/a	n/a	MILK	n/a	1	0	4	[0, 0, 0]	n/a	0	1	0	n/a	n/a	0.0	0	0	0	catFR3	0	R1260D
605.876	1.6	653726	WORD	n/a	wordpools/wordpool.txt	LEMONADE	Beverages	2	0	4	[0, 0, 0]	n/a	0	1	0	n/a	n/a	0.0	0	0	0	catFR3	0	R1260D
606.059	0.5	653909	STIM_ON	n/a	n/a	LEMONADE	n/a	2	0	4	[0, 0, 0]	n/a	1	1	500	LLTG22	LLTG23	1250.0	200	100	300	catFR3	0	R1260D
606.559	0.935	654409	STIM_OFF	n/a	n/a	n/a	n/a	2	0	4	[0, 0, 0]	n/a	0	1	500	LLTG22	LLTG23	1250.0	200	100	300	catFR3	0	R1260D
607.494	0.984	655344	WORD_OFF	n/a	n/a	LEMONADE	n/a	2	0	4	[0, 0, 0]	n/a	0	1	0	n/a	n/a	0.0	0	0	0	catFR3	0	R1260D
608.478	1.6	656328	WORD	n/a	wordpools/wordpool.txt	SANDER	Tools	3	0	4	[0, 0, 0]	n/a	0	1	0	n/a	n/a	0.0	0	0	0	catFR3	0	R1260D
608.655	0.5	656505	STIM_ON	n/a	n/a	SANDER	n/a	3	0	4	[0, 0, 0]	n/a	1	1	500	LLTG22	LLTG23	1250.0	200	100	300	catFR3	0	R1260D
609.155	0.94	657005	STIM_OFF	n/a	n/a	n/a	n/a	3	0	4	[0, 0, 0]	n/a	0	1	500	LLTG22	LLTG23	1250.0	200	100	300	catFR3	0	R1260D
610.095	0.817	657945	WORD_OFF	n/a	n/a	SANDER	n/a	3	0	4	[0, 0, 0]	n/a	0	1	0	n/a	n/a	0.0	0	0	0	catFR3	0	R1260D
610.912	1.6	658762	WORD	n/a	wordpools/wordpool.txt	SHOVEL	Tools	4	0	4	[0, 0, 0]	n/a	0	1	0	n/a	n/a	0.0	0	0	0	catFR3	0	R1260D
611.089	0.5	658939	STIM_ON	n/a	n/a	SHOVEL	n/a	4	0	4	[0, 0, 0]	n/a	1	1	500	LLTG22	LLTG23	1250.0	200	100	300	catFR3	0	R1260D
611.589	0.94	659439	STIM_OFF	n/a	n/a	n/a	n/a	4	0	4	[0, 0, 0]	n/a	0	1	500	LLTG22	LLTG23	1250.0	200	100	300	catFR3	0	R1260D
612.529	0.833	660379	WORD_OFF	n/a	n/a	SHOVEL	n/a	4	0	4	[0, 0, 0]	n/a	0	1	0	n/a	n/a	0.0	0	0	0	catFR3	0	R1260D
613.362	1.6	661212	WORD	n/a	wordpools/wordpool.txt	JEANS	Clothing	5	0	4	[0, 0, 0]	n/a	0	1	0	n/a	n/a	0.0	0	0	0	catFR3	0	R1260D
614.979	0.984	662829	WORD_OFF	n/a	n/a	JEANS	n/a	5	0	4	[0, 0, 0]	n/a	0	1	0	n/a	n/a	0.0	0	0	0	catFR3	0	R1260D
615.963	1.6	663812	WORD	n/a	wordpools/wordpool.txt	COAT	Clothing	6	0	4	[0, 0, 0]	n/a	0	1	0	n/a	n/a	0.0	0	0	0	catFR3	0	R1260D
617.579	0.784	665428	WORD_OFF	n/a	n/a	COAT	n/a	6	0	4	[0, 0, 0]	n/a	0	1	0	n/a	n/a	0.0	0	0	0	catFR3	0	R1260D
618.363	1.6	666212	WORD	n/a	wordpools/wordpool.txt	JUICE	Beverages	7	0	4	[0, 0, 0]	n/a	0	1	0	n/a	n/a	0.0	0	0	0	catFR3	0	R1260D
619.98	0.917	667829	WORD_OFF	n/a	n/a	JUICE	n/a	7	0	4	[0, 0, 0]	n/a	0	1	0	n/a	n/a	0.0	0	0	0	catFR3	0	R1260D
620.897	1.6	668746	WORD	n/a	wordpools/wordpool.txt	COFFEE	Beverages	8	0	4	[0, 0, 0]	n/a	0	1	0	n/a	n/a	0.0	0	0	0	catFR3	0	R1260D
621.079	0.5	668928	STIM_ON	n/a	n/a	COFFEE	n/a	8	0	4	[0, 0, 0]	n/a	1	1	500	LLTG22	LLTG23	1250.0	200	100	300	catFR3	0	R1260D
621.579	0.935	669428	STIM_OFF	n/a	n/a	n/a	n/a	8	0	4	[0, 0, 0]	n/a	0	1	500	LLTG22	LLTG23	1250.0	200	100	300	catFR3	0	R1260D
622.514	0.883	670363	WORD_OFF	n/a	n/a	COFFEE	n/a	8	0	4	[0, 0, 0]	n/a	0	1	0	n/a	n/a	0.0	0	0	0	catFR3	0	R1260D
623.397	1.6	671246	WORD	n/a	wordpools/wordpool.txt	CROWBAR	Tools	9	0	4	[0, 0, 0]	n/a	0	1	0	n/a	n/a	0.0	0	0	0	catFR3	0	R1260D
623.579	0.5	671428	STIM_ON	n/a	n/a	CROWBAR	n/a	9	0	4	[0, 0, 0]	n/a	1	1	500	LLTG22	LLTG23	1250.0	200	100	300	catFR3	0	R1260D
624.079	0.935	671928	STIM_OFF	n/a	n/a	n/a	n/a	9	0	4	[0, 0, 0]	n/a	0	1	500	LLTG22	LLTG23	1250.0	200	100	300	catFR3	0	R1260D
625.014	0.984	672863	WORD_OFF	n/a	n/a	CROWBAR	n/a	9	0	4	[0, 0, 0]	n/a	0	1	0	n/a	n/a	0.0	0	0	0	catFR3	0	R1260D
625.998	1.6	673847	WORD	n/a	wordpools/wordpool.txt	SAW	Tools	10	0	4	[0, 0, 0]	n/a	0	1	0	n/a	n/a	0.0	0	0	0	catFR3	0	R1260D
626.181	0.5	674030	STIM_ON	n/a	n/a	SAW	n/a	10	0	4	[0, 0, 0]	n/a	1	1	500	LLTG22	LLTG23	1250.0	200	100	300	catFR3	0	R1260D
626.681	0.933	674530	STIM_OFF	n/a	n/a	n/a	n/a	10	0	4	[0, 0, 0]	n/a	0	1	500	LLTG22	LLTG23	1250.0	200	100	300	catFR3	0	R1260D
627.614	0.95	675463	WORD_OFF	n/a	n/a	SAW	n/a	10	0	4	[0, 0, 0]	n/a	0	1	0	n/a	n/a	0.0	0	0	0	catFR3	0	R1260D
628.564	1.6	676413	WORD	n/a	wordpools/wordpool.txt	BLOUSE	Clothing	11	0	4	[0, 0, 0]	n/a	0	1	0	n/a	n/a	0.0	0	0	0	catFR3	0	R1260D
628.748	0.5	676597	STIM_ON	n/a	n/a	BLOUSE	n/a	11	0	4	[0, 0, 0]	n/a	1	1	500	LLTG22	LLTG23	1250.0	200	100	300	catFR3	0	R1260D
629.248	0.917	677097	STIM_OFF	n/a	n/a	n/a	n/a	11	0	4	[0, 0, 0]	n/a	0	1	500	LLTG22	LLTG23	1250.0	200	100	300	catFR3	0	R1260D
630.165	0.967	678014	WORD_OFF	n/a	n/a	BLOUSE	n/a	11	0	4	[0, 0, 0]	n/a	0	1	0	n/a	n/a	0.0	0	0	0	catFR3	0	R1260D
631.132	1.6	678981	WORD	n/a	wordpools/wordpool.txt	JACKET	Clothing	12	0	4	[0, 0, 0]	n/a	0	1	0	n/a	n/a	0.0	0	0	0	catFR3	0	R1260D
631.317	0.5	679166	STIM_ON	n/a	n/a	n/a	n/a	11	0	4	[0, 0, 0]	n/a	1	1	500	LLTG22	LLTG23	1250.0	200	100	300	catFR3	0	R1260D
631.817	0.931	679666	STIM_OFF	n/a	n/a	n/a	n/a	11	0	4	[0, 0, 0]	n/a	0	1	500	LLTG22	LLTG23	1250.0	200	100	300	catFR3	0	R1260D
632.748	0.0	680597	ENCODING_END	n/a	n/a	n/a	n/a	-999	0	4	[0, 0, 0]	n/a	0	1	0	n/a	n/a	0.0	0	0	0	catFR3	0	R1260D
632.748	0.085	680597	WORD_OFF	n/a	n/a	JACKET	n/a	12	0	4	[0, 0, 0]	n/a	0	1	0	n/a	n/a	0.0	0	0	0	catFR3	0	R1260D
632.833	0.0	680682	DISTRACT_START	n/a	n/a	n/a	n/a	-999	0	4	[0, 0, 0]	n/a	0	1	0	n/a	n/a	0.0	0	0	0	catFR3	0	R1260D
632.833	0.015	680682	START	n/a	n/a	n/a	n/a	-999	0	4	[-999, -999, -999]	n/a	0	1	0	n/a	n/a	0.0	0	0	0	catFR3	0	R1260D
632.848	9.869	680697	PROB	9.835	n/a	n/a	n/a	-999	0	4	[6, 9, 9]	24	0	1	0	n/a	n/a	0.0	0	0	0	catFR3	0	R1260D
642.717	7.352	690565	PROB	7.32	n/a	n/a	n/a	-999	0	4	[6, 1, 7]	14	0	1	0	n/a	n/a	0.0	0	0	0	catFR3	0	R1260D
650.069	4.249	697917	PROB	4.249	n/a	n/a	n/a	-999	0	4	[5, 7, 3]	15	0	1	0	n/a	n/a	0.0	0	0	0	catFR3	0	R1260D
654.318	0.018	702165	STOP	n/a	n/a	n/a	n/a	-999	0	4	[-999, -999, -999]	n/a	0	1	0	n/a	n/a	0.0	0	0	0	catFR3	0	R1260D
654.336	0.6	702183	DISTRACT_END	n/a	n/a	n/a	n/a	-999	0	4	[0, 0, 0]	n/a	0	1	0	n/a	n/a	0.0	0	0	0	catFR3	0	R1260D
654.936	0.5	702783	RETRIEVAL_ORIENT	n/a	n/a	n/a	n/a	-999	0	4	[0, 0, 0]	n/a	0	1	0	n/a	n/a	0.0	0	0	0	catFR3	0	R1260D
655.454	5.212	703301	REC_START	n/a	n/a	n/a	n/a	-999	0	4	[0, 0, 0]	n/a	0	1	0	n/a	n/a	0.0	0	0	0	catFR3	0	R1260D
660.666	0.155	708513	REC_WORD_VV	5.212	n/a	<>	n/a	-999	0	4	[0, 0, 0]	n/a	0	1	0	n/a	n/a	0.0	0	0	0	catFR3	0	R1260D
660.821	1.968	708668	REC_WORD	5.367	n/a	GNAT	n/a	-999	0	4	[0, 0, 0]	n/a	0	1	0	n/a	n/a	0.0	0	0	0	catFR3	0	R1260D
662.789	14.076	710636	REC_WORD_VV	7.335	n/a	<>	n/a	-999	0	4	[0, 0, 0]	n/a	0	1	0	n/a	n/a	0.0	0	0	0	catFR3	0	R1260D
676.865	4.9	724711	REC_WORD	21.411	n/a	BEDROOM	n/a	-999	0	4	[0, 0, 0]	n/a	0	1	0	n/a	n/a	0.0	0	0	0	catFR3	0	R1260D
681.765	3.7	729611	REC_WORD_VV	26.311	n/a	<>	n/a	-999	0	4	[0, 0, 0]	n/a	0	1	0	n/a	n/a	0.0	0	0	0	catFR3	0	R1260D
685.465	21.714	733311	REC_END	n/a	n/a	n/a	n/a	-999	0	4	[0, 0, 0]	n/a	0	1	0	n/a	n/a	0.0	0	0	0	catFR3	0	R1260D
707.179	0.5	755023	TRIAL	n/a	n/a	n/a	n/a	-999	0	5	[0, 0, 0]	n/a	0	0	0	n/a	n/a	0.0	0	0	0	catFR3	0	R1260D
707.679	10.0	755523	COUNTDOWN_START	n/a	n/a	n/a	n/a	-999	0	5	[0, 0, 0]	n/a	0	0	0	n/a	n/a	0.0	0	0	0	catFR3	0	R1260D
718.107	0.008	765951	COUNTDOWN_END	n/a	n/a	n/a	n/a	-999	0	5	[0, 0, 0]	n/a	0	0	0	n/a	n/a	0.0	0	0	0	catFR3	0	R1260D
718.115	1.6	765959	ORIENT	n/a	n/a	n/a	n/a	-999	0	5	[0, 0, 0]	n/a	0	0	0	n/a	n/a	0.0	0	0	0	catFR3	0	R1260D
719.731	2.351	767575	ORIENT_OFF	n/a	n/a	n/a	n/a	-999	0	5	[0, 0, 0]	n/a	0	0	0	n/a	n/a	0.0	0	0	0	catFR3	0	R1260D
722.082	1.6	769926	WORD	n/a	wordpools/wordpool.txt	COOKIE	Desserts	1	0	5	[0, 0, 0]	n/a	0	0	0	n/a	n/a	0.0	0	0	0	catFR3	0	R1260D
723.698	0.983	771541	WORD_OFF	n/a	n/a	COOKIE	n/a	1	0	5	[0, 0, 0]	n/a	0	0	0	n/a	n/a	0.0	0	0	0	catFR3	0	R1260D
724.681	1.6	772524	WORD	n/a	wordpools/wordpool.txt	MOUSSE	Desserts	2	0	5	[0, 0, 0]	n/a	0	0	0	n/a	n/a	0.0	0	0	0	catFR3	0	R1260D
726.283	0.883	774126	WORD_OFF	n/a	n/a	MOUSSE	n/a	2	0	5	[0, 0, 0]	n/a	0	0	0	n/a	n/a	0.0	0	0	0	catFR3	0	R1260D
727.166	1.6	775009	WORD	n/a	wordpools/wordpool.txt	EAR	BodyParts	3	0	5	[0, 0, 0]	n/a	0	0	0	n/a	n/a	0.0	0	0	0	catFR3	0	R1260D
728.782	0.917	776625	WORD_OFF	n/a	n/a	EAR	n/a	3	0	5	[0, 0, 0]	n/a	0	0	0	n/a	n/a	0.0	0	0	0	catFR3	0	R1260D
729.699	1.6	777542	WORD	n/a	wordpools/wordpool.txt	HAND	BodyParts	4	0	5	[0, 0, 0]	n/a	0	0	0	n/a	n/a	0.0	0	0	0	catFR3	0	R1260D
731.317	0.95	779160	WORD_OFF	n/a	n/a	HAND	n/a	4	0	5	[0, 0, 0]	n/a	0	0	0	n/a	n/a	0.0	0	0	0	catFR3	0	R1260D
732.267	1.6	780110	WORD	n/a	wordpools/wordpool.txt	ORCHID	Flowers	5	0	5	[0, 0, 0]	n/a	0	0	0	n/a	n/a	0.0	0	0	0	catFR3	0	R1260D
733.883	0.85	781726	WORD_OFF	n/a	n/a	ORCHID	n/a	5	0	5	[0, 0, 0]	n/a	0	0	0	n/a	n/a	0.0	0	0	0	catFR3	0	R1260D
734.733	1.6	782576	WORD	n/a	wordpools/wordpool.txt	DAFFODIL	Flowers	6	1	5	[0, 0, 0]	n/a	0	0	0	n/a	n/a	0.0	0	0	0	catFR3	0	R1260D
736.334	0.851	784177	WORD_OFF	n/a	n/a	DAFFODIL	n/a	6	0	5	[0, 0, 0]	n/a	0	0	0	n/a	n/a	0.0	0	0	0	catFR3	0	R1260D
737.185	1.6	785028	WORD	n/a	wordpools/wordpool.txt	EYE	BodyParts	7	0	5	[0, 0, 0]	n/a	0	0	0	n/a	n/a	0.0	0	0	0	catFR3	0	R1260D
738.801	1.0	786644	WORD_OFF	n/a	n/a	EYE	n/a	7	0	5	[0, 0, 0]	n/a	0	0	0	n/a	n/a	0.0	0	0	0	catFR3	0	R1260D
739.801	1.6	787644	WORD	n/a	wordpools/wordpool.txt	FOOT	BodyParts	8	0	5	[0, 0, 0]	n/a	0	0	0	n/a	n/a	0.0	0	0	0	catFR3	0	R1260D
741.419	0.783	789262	WORD_OFF	n/a	n/a	FOOT	n/a	8	0	5	[0, 0, 0]	n/a	0	0	0	n/a	n/a	0.0	0	0	0	catFR3	0	R1260D
742.202	1.6	790044	WORD	n/a	wordpools/wordpool.txt	CHEESECAKE	Desserts	9	0	5	[0, 0, 0]	n/a	0	0	0	n/a	n/a	0.0	0	0	0	catFR3	0	R1260D
743.818	0.834	791660	WORD_OFF	n/a	n/a	CHEESECAKE	n/a	9	0	5	[0, 0, 0]	n/a	0	0	0	n/a	n/a	0.0	0	0	0	catFR3	0	R1260D
744.652	1.6	792494	WORD	n/a	wordpools/wordpool.txt	PIE	Desserts	10	0	5	[0, 0, 0]	n/a	0	0	0	n/a	n/a	0.0	0	0	0	catFR3	0	R1260D
746.27	0.933	794112	WORD_OFF	n/a	n/a	PIE	n/a	10	0	5	[0, 0, 0]	n/a	0	0	0	n/a	n/a	0.0	0	0	0	catFR3	0	R1260D
747.203	1.6	795045	WORD	n/a	wordpools/wordpool.txt	DAISY	Flowers	11	0	5	[0, 0, 0]	n/a	0	0	0	n/a	n/a	0.0	0	0	0	catFR3	0	R1260D
748.819	1.0	796661	WORD_OFF	n/a	n/a	DAISY	n/a	11	0	5	[0, 0, 0]	n/a	0	0	0	n/a	n/a	0.0	0	0	0	catFR3	0	R1260D
749.819	1.6	797661	WORD	n/a	wordpools/wordpool.txt	LILY	Flowers	12	0	5	[0, 0, 0]	n/a	0	0	0	n/a	n/a	0.0	0	0	0	catFR3	0	R1260D
751.437	0.001	799279	WORD_OFF	n/a	n/a	LILY	n/a	12	0	5	[0, 0, 0]	n/a	0	0	0	n/a	n/a	0.0	0	0	0	catFR3	0	R1260D
751.438	0.089	799280	ENCODING_END	n/a	n/a	n/a	n/a	-999	0	5	[0, 0, 0]	n/a	0	0	0	n/a	n/a	0.0	0	0	0	catFR3	0	R1260D
751.527	0.0	799369	DISTRACT_START	n/a	n/a	n/a	n/a	-999	0	5	[0, 0, 0]	n/a	0	0	0	n/a	n/a	0.0	0	0	0	catFR3	0	R1260D
751.527	0.01	799369	START	n/a	n/a	n/a	n/a	-999	0	5	[-999, -999, -999]	n/a	0	0	0	n/a	n/a	0.0	0	0	0	catFR3	0	R1260D
751.537	11.853	799379	PROB	11.82	n/a	n/a	n/a	-999	0	5	[5, 7, 8]	20	0	0	0	n/a	n/a	0.0	0	0	0	catFR3	0	R1260D
763.39	5.034	811231	PROB	4.999	n/a	n/a	n/a	-999	0	5	[3, 1, 7]	11	0	0	0	n/a	n/a	0.0	0	0	0	catFR3	0	R1260D
768.424	3.645	816265	PROB	3.645	n/a	n/a	n/a	-999	0	5	[1, 9, 4]	14	0	0	0	n/a	n/a	0.0	0	0	0	catFR3	0	R1260D
772.069	0.022	819910	STOP	n/a	n/a	n/a	n/a	-999	0	5	[-999, -999, -999]	n/a	0	0	0	n/a	n/a	0.0	0	0	0	catFR3	0	R1260D
772.091	0.683	819932	DISTRACT_END	n/a	n/a	n/a	n/a	-999	0	5	[0, 0, 0]	n/a	0	0	0	n/a	n/a	0.0	0	0	0	catFR3	0	R1260D
772.774	0.5	820615	RETRIEVAL_ORIENT	n/a	n/a	n/a	n/a	-999	0	5	[0, 0, 0]	n/a	0	0	0	n/a	n/a	0.0	0	0	0	catFR3	0	R1260D
773.292	2.385	821133	REC_START	n/a	n/a	n/a	n/a	-999	0	5	[0, 0, 0]	n/a	0	0	0	n/a	n/a	0.0	0	0	0	catFR3	0	R1260D
775.677	6.325	823518	REC_WORD_VV	2.385	n/a	<>	n/a	-999	0	5	[0, 0, 0]	n/a	0	0	0	n/a	n/a	0.0	0	0	0	catFR3	0	R1260D
782.002	0.557	829842	REC_WORD	8.71	n/a	FLOWER	n/a	-999	0	5	[0, 0, 0]	n/a	0	0	0	n/a	n/a	0.0	0	0	0	catFR3	0	R1260D
782.559	0.231	830399	REC_WORD_VV	9.267	n/a	<>	n/a	-999	0	5	[0, 0, 0]	n/a	0	0	0	n/a	n/a	0.0	0	0	0	catFR3	0	R1260D
782.79	1.96	830630	REC_WORD	9.498	n/a	DAFFODIL	Flowers	6	1	5	[0, 0, 0]	n/a	0	0	0	n/a	n/a	0.0	0	0	0	catFR3	0	R1260D
784.75	4.848	832590	REC_WORD_VV	11.458	n/a	<>	n/a	-999	0	5	[0, 0, 0]	n/a	0	0	0	n/a	n/a	0.0	0	0	0	catFR3	0	R1260D
789.598	0.055	837438	REC_WORD_VV	16.306	n/a	<>	n/a	-999	0	5	[0, 0, 0]	n/a	0	0	0	n/a	n/a	0.0	0	0	0	catFR3	0	R1260D
789.653	8.722	837493	REC_WORD	16.361	n/a	SONG	n/a	-999	0	5	[0, 0, 0]	n/a	0	0	0	n/a	n/a	0.0	0	0	0	catFR3	0	R1260D
798.375	3.722	846214	REC_WORD_VV	25.083	n/a	<>	n/a	-999	0	5	[0, 0, 0]	n/a	0	0	0	n/a	n/a	0.0	0	0	0	catFR3	0	R1260D
802.097	1.209	849936	REC_WORD	28.805	n/a	KITCHEN	n/a	-999	0	5	[0, 0, 0]	n/a	0	0	0	n/a	n/a	0.0	0	0	0	catFR3	0	R1260D
803.306	20.46	851145	REC_END	n/a	n/a	n/a	n/a	-999	0	5	[0, 0, 0]	n/a	0	0	0	n/a	n/a	0.0	0	0	0	catFR3	0	R1260D
823.766	0.5	871604	TRIAL	n/a	n/a	n/a	n/a	-999	0	6	[0, 0, 0]	n/a	0	1	0	n/a	n/a	0.0	0	0	0	catFR3	0	R1260D
824.266	10.0	872104	COUNTDOWN_START	n/a	n/a	n/a	n/a	-999	0	6	[0, 0, 0]	n/a	0	1	0	n/a	n/a	0.0	0	0	0	catFR3	0	R1260D
834.694	0.008	882531	COUNTDOWN_END	n/a	n/a	n/a	n/a	-999	0	6	[0, 0, 0]	n/a	0	1	0	n/a	n/a	0.0	0	0	0	catFR3	0	R1260D
834.702	1.6	882539	ORIENT	n/a	n/a	n/a	n/a	-999	0	6	[0, 0, 0]	n/a	0	1	0	n/a	n/a	0.0	0	0	0	catFR3	0	R1260D
836.319	2.3	884156	ORIENT_OFF	n/a	n/a	n/a	n/a	-999	0	6	[0, 0, 0]	n/a	0	1	0	n/a	n/a	0.0	0	0	0	catFR3	0	R1260D
838.619	1.6	886456	WORD	n/a	wordpools/wordpool.txt	DISHWASHER	Appliances	1	0	6	[0, 0, 0]	n/a	0	1	0	n/a	n/a	0.0	0	0	0	catFR3	0	R1260D
838.812	0.5	886649	STIM_ON	n/a	n/a	DISHWASHER	n/a	1	0	6	[0, 0, 0]	n/a	1	1	500	LLTG22	LLTG23	1250.0	200	100	300	catFR3	0	R1260D
839.312	0.925	887149	STIM_OFF	n/a	n/a	n/a	n/a	1	0	6	[0, 0, 0]	n/a	0	1	500	LLTG22	LLTG23	1250.0	200	100	300	catFR3	0	R1260D
840.237	0.9	888074	WORD_OFF	n/a	n/a	DISHWASHER	n/a	1	0	6	[0, 0, 0]	n/a	0	1	0	n/a	n/a	0.0	0	0	0	catFR3	0	R1260D
841.137	1.6	888974	WORD	n/a	wordpools/wordpool.txt	TOASTER	Appliances	2	0	6	[0, 0, 0]	n/a	0	1	0	n/a	n/a	0.0	0	0	0	catFR3	0	R1260D
842.753	0.867	890590	WORD_OFF	n/a	n/a	TOASTER	n/a	2	0	6	[0, 0, 0]	n/a	0	1	0	n/a	n/a	0.0	0	0	0	catFR3	0	R1260D
843.62	1.6	891457	WORD	n/a	wordpools/wordpool.txt	FOUNDATION	Building	3	0	6	[0, 0, 0]	n/a	0	1	0	n/a	n/a	0.0	0	0	0	catFR3	0	R1260D
843.811	0.5	891648	STIM_ON	n/a	n/a	FOUNDATION	n/a	3	0	6	[0, 0, 0]	n/a	1	1	500	LLTG22	LLTG23	1250.0	200	100	300	catFR3	0	R1260D
844.311	0.927	892148	STIM_OFF	n/a	n/a	n/a	n/a	3	0	6	[0, 0, 0]	n/a	0	1	500	LLTG22	LLTG23	1250.0	200	100	300	catFR3	0	R1260D
845.238	0.767	893075	WORD_OFF	n/a	n/a	FOUNDATION	n/a	3	0	6	[0, 0, 0]	n/a	0	1	0	n/a	n/a	0.0	0	0	0	catFR3	0	R1260D
846.005	1.6	893842	WORD	n/a	wordpools/wordpool.txt	STAIRS	Building	4	0	6	[0, 0, 0]	n/a	0	1	0	n/a	n/a	0.0	0	0	0	catFR3	0	R1260D
847.621	0.801	895458	WORD_OFF	n/a	n/a	STAIRS	n/a	4	0	6	[0, 0, 0]	n/a	0	1	0	n/a	n/a	0.0	0	0	0	catFR3	0	R1260D
848.422	1.6	896259	WORD	n/a	wordpools/wordpool.txt	OAK	Trees	5	0	6	[0, 0, 0]	n/a	0	1	0	n/a	n/a	0.0	0	0	0	catFR3	0	R1260D
848.614	0.5	896451	STIM_ON	n/a	n/a	OAK	n/a	5	0	6	[0, 0, 0]	n/a	1	1	500	LLTG22	LLTG23	1250.0	200	100	300	catFR3	0	R1260D
849.114	0.925	896951	STIM_OFF	n/a	n/a	n/a	n/a	5	0	6	[0, 0, 0]	n/a	0	1	500	LLTG22	LLTG23	1250.0	200	100	300	catFR3	0	R1260D
850.039	0.867	897875	WORD_OFF	n/a	n/a	OAK	n/a	5	0	6	[0, 0, 0]	n/a	0	1	0	n/a	n/a	0.0	0	0	0	catFR3	0	R1260D
850.906	1.6	898742	WORD	n/a	wordpools/wordpool.txt	MAPLE	Trees	6	0	6	[0, 0, 0]	n/a	0	1	0	n/a	n/a	0.0	0	0	0	catFR3	0	R1260D
852.522	0.917	900358	WORD_OFF	n/a	n/a	MAPLE	n/a	6	0	6	[0, 0, 0]	n/a	0	1	0	n/a	n/a	0.0	0	0	0	catFR3	0	R1260D
853.439	1.6	901275	WORD	n/a	wordpools/wordpool.txt	DRYER	Appliances	7	0	6	[0, 0, 0]	n/a	0	1	0	n/a	n/a	0.0	0	0	0	catFR3	0	R1260D
853.635	0.5	901471	STIM_ON	n/a	n/a	DRYER	n/a	7	0	6	[0, 0, 0]	n/a	1	1	500	LLTG22	LLTG23	1250.0	200	100	300	catFR3	0	R1260D
854.135	0.921	901971	STIM_OFF	n/a	n/a	n/a	n/a	7	0	6	[0, 0, 0]	n/a	0	1	500	LLTG22	LLTG23	1250.0	200	100	300	catFR3	0	R1260D
855.056	0.917	902892	WORD_OFF	n/a	n/a	DRYER	n/a	7	0	6	[0, 0, 0]	n/a	0	1	0	n/a	n/a	0.0	0	0	0	catFR3	0	R1260D
855.973	1.6	903809	WORD	n/a	wordpools/wordpool.txt	IRON	Appliances	8	0	6	[0, 0, 0]	n/a	0	1	0	n/a	n/a	0.0	0	0	0	catFR3	0	R1260D
856.166	0.5	904002	STIM_ON	n/a	n/a	IRON	n/a	8	0	6	[0, 0, 0]	n/a	1	1	500	LLTG22	LLTG23	1250.0	200	100	300	catFR3	0	R1260D
856.666	0.923	904502	STIM_OFF	n/a	n/a	n/a	n/a	8	0	6	[0, 0, 0]	n/a	0	1	500	LLTG22	LLTG23	1250.0	200	100	300	catFR3	0	R1260D
857.589	0.951	905425	WORD_OFF	n/a	n/a	IRON	n/a	8	0	6	[0, 0, 0]	n/a	0	1	0	n/a	n/a	0.0	0	0	0	catFR3	0	R1260D
858.54	1.6	906376	WORD	n/a	wordpools/wordpool.txt	ROOM	Building	9	0	6	[0, 0, 0]	n/a	0	1	0	n/a	n/a	0.0	0	0	0	catFR3	0	R1260D
858.737	0.5	906573	STIM_ON	n/a	n/a	ROOM	n/a	9	0	6	[0, 0, 0]	n/a	1	1	500	LLTG22	LLTG23	1250.0	200	100	300	catFR3	0	R1260D
859.237	0.92	907073	STIM_OFF	n/a	n/a	n/a	n/a	9	0	6	[0, 0, 0]	n/a	0	1	500	LLTG22	LLTG23	1250.0	200	100	300	catFR3	0	R1260D
860.157	0.934	907993	WORD_OFF	n/a	n/a	ROOM	n/a	9	0	6	[0, 0, 0]	n/a	0	1	0	n/a	n/a	0.0	0	0	0	catFR3	0	R1260D
861.091	1.6	908927	WORD	n/a	wordpools/wordpool.txt	HALLWAY	Building	10	1	6	[0, 0, 0]	n/a	0	1	0	n/a	n/a	0.0	0	0	0	catFR3	0	R1260D
862.707	0.85	910543	WORD_OFF	n/a	n/a	HALLWAY	n/a	10	0	6	[0, 0, 0]	n/a	0	1	0	n/a	n/a	0.0	0	0	0	catFR3	0	R1260D
863.557	1.6	911393	WORD	n/a	wordpools/wordpool.txt	ELM	Trees	11	0	6	[0, 0, 0]	n/a	0	1	0	n/a	n/a	0.0	0	0	0	catFR3	0	R1260D
865.175	0.917	913011	WORD_OFF	n/a	n/a	ELM	n/a	11	0	6	[0, 0, 0]	n/a	0	1	0	n/a	n/a	0.0	0	0	0	catFR3	0	R1260D
866.092	1.6	913928	WORD	n/a	wordpools/wordpool.txt	CYPRESS	Trees	12	0	6	[0, 0, 0]	n/a	0	1	0	n/a	n/a	0.0	0	0	0	catFR3	0	R1260D
866.288	0.5	914124	STIM_ON	n/a	n/a	n/a	n/a	11	0	6	[0, 0, 0]	n/a	1	1	500	LLTG22	LLTG23	1250.0	200	100	300	catFR3	0	R1260D
866.788	0.92	914624	STIM_OFF	n/a	n/a	n/a	n/a	11	0	6	[0, 0, 0]	n/a	0	1	500	LLTG22	LLTG23	1250.0	200	100	300	catFR3	0	R1260D
867.708	0.0	915544	WORD_OFF	n/a	n/a	CYPRESS	n/a	12	0	6	[0, 0, 0]	n/a	0	1	0	n/a	n/a	0.0	0	0	0	catFR3	0	R1260D
867.708	0.081	915544	ENCODING_END	n/a	n/a	n/a	n/a	-999	0	6	[0, 0, 0]	n/a	0	1	0	n/a	n/a	0.0	0	0	0	catFR3	0	R1260D
867.789	0.001	915624	DISTRACT_START	n/a	n/a	n/a	n/a	-999	0	6	[0, 0, 0]	n/a	0	1	0	n/a	n/a	0.0	0	0	0	catFR3	0	R1260D
867.79	0.018	915625	START	n/a	n/a	n/a	n/a	-999	0	6	[-999, -999, -999]	n/a	0	1	0	n/a	n/a	0.0	0	0	0	catFR3	0	R1260D
867.808	5.535	915643	PROB	5.502	n/a	n/a	n/a	-999	0	6	[8, 9, 7]	24	0	1	0	n/a	n/a	0.0	0	0	0	catFR3	0	R1260D
873.343	5.4	921178	PROB	5.373	n/a	n/a	n/a	-999	0	6	[1, 9, 7]	17	0	1	0	n/a	n/a	0.0	0	0	0	catFR3	0	R1260D
878.743	7.669	926578	PROB	7.646	n/a	n/a	n/a	-999	0	6	[4, 7, 5]	16	0	1	0	n/a	n/a	0.0	0	0	0	catFR3	0	R1260D
886.412	10.649	934246	PROB	10.649	n/a	n/a	n/a	-999	0	6	[5, 6, 3]	14	0	1	0	n/a	n/a	0.0	0	0	0	catFR3	0	R1260D
897.061	0.02	944895	STOP	n/a	n/a	n/a	n/a	-999	0	6	[-999, -999, -999]	n/a	0	1	0	n/a	n/a	0.0	0	0	0	catFR3	0	R1260D
897.081	0.515	944915	DISTRACT_END	n/a	n/a	n/a	n/a	-999	0	6	[0, 0, 0]	n/a	0	1	0	n/a	n/a	0.0	0	0	0	catFR3	0	R1260D
897.596	0.5	945430	RETRIEVAL_ORIENT	n/a	n/a	n/a	n/a	-999	0	6	[0, 0, 0]	n/a	0	1	0	n/a	n/a	0.0	0	0	0	catFR3	0	R1260D
898.115	2.365	945949	REC_START	n/a	n/a	n/a	n/a	-999	0	6	[0, 0, 0]	n/a	0	1	0	n/a	n/a	0.0	0	0	0	catFR3	0	R1260D
900.48	1.975	948314	REC_WORD_VV	2.365	n/a	<>	n/a	-999	0	6	[0, 0, 0]	n/a	0	1	0	n/a	n/a	0.0	0	0	0	catFR3	0	R1260D
902.455	2.141	950289	REC_WORD_VV	4.34	n/a	<>	n/a	-999	0	6	[0, 0, 0]	n/a	0	1	0	n/a	n/a	0.0	0	0	0	catFR3	0	R1260D
904.596	2.354	952429	REC_WORD	6.481	n/a	HALLWAY	Building	10	1	6	[0, 0, 0]	n/a	0	1	0	n/a	n/a	0.0	0	0	0	catFR3	0	R1260D
906.95	0.205	954783	REC_WORD_VV	8.835	n/a	<>	n/a	-999	0	6	[0, 0, 0]	n/a	0	1	0	n/a	n/a	0.0	0	0	0	catFR3	0	R1260D
907.155	4.131	954988	REC_WORD	9.04	n/a	LIVINGROOM	n/a	-999	0	6	[0, 0, 0]	n/a	0	1	0	n/a	n/a	0.0	0	0	0	catFR3	0	R1260D
911.286	1.862	959119	REC_WORD_VV	13.171	n/a	<>	n/a	-999	0	6	[0, 0, 0]	n/a	0	1	0	n/a	n/a	0.0	0	0	0	catFR3	0	R1260D
913.148	5.336	960981	REC_WORD	15.033	n/a	CAULIFLOWER	n/a	-999	0	6	[0, 0, 0]	n/a	0	1	0	n/a	n/a	0.0	0	0	0	catFR3	0	R1260D
918.484	9.643	966317	REC_WORD_VV	20.369	n/a	<>	n/a	-999	0	6	[0, 0, 0]	n/a	0	1	0	n/a	n/a	0.0	0	0	0	catFR3	0	R1260D
928.127	12.694	975959	REC_END	n/a	n/a	n/a	n/a	-999	0	6	[0, 0, 0]	n/a	0	1	0	n/a	n/a	0.0	0	0	0	catFR3	0	R1260D
940.821	0.5	988652	TRIAL	n/a	n/a	n/a	n/a	-999	0	7	[0, 0, 0]	n/a	0	1	0	n/a	n/a	0.0	0	0	0	catFR3	0	R1260D
941.321	10.0	989152	COUNTDOWN_START	n/a	n/a	n/a	n/a	-999	0	7	[0, 0, 0]	n/a	0	1	0	n/a	n/a	0.0	0	0	0	catFR3	0	R1260D
951.749	0.007	999580	COUNTDOWN_END	n/a	n/a	n/a	n/a	-999	0	7	[0, 0, 0]	n/a	0	1	0	n/a	n/a	0.0	0	0	0	catFR3	0	R1260D
951.756	1.6	999587	ORIENT	n/a	n/a	n/a	n/a	-999	0	7	[0, 0, 0]	n/a	0	1	0	n/a	n/a	0.0	0	0	0	catFR3	0	R1260D
953.374	2.216	1001205	ORIENT_OFF	n/a	n/a	n/a	n/a	-999	0	7	[0, 0, 0]	n/a	0	1	0	n/a	n/a	0.0	0	0	0	catFR3	0	R1260D
955.59	1.6	1003421	WORD	n/a	wordpools/wordpool.txt	ROOSTER	FarmAnimals	1	0	7	[0, 0, 0]	n/a	0	1	0	n/a	n/a	0.0	0	0	0	catFR3	0	R1260D
955.789	0.5	1003620	STIM_ON	n/a	n/a	ROOSTER	n/a	1	0	7	[0, 0, 0]	n/a	1	1	500	LLTG22	LLTG23	1250.0	200	100	300	catFR3	0	R1260D
956.289	0.902	1004120	STIM_OFF	n/a	n/a	n/a	n/a	1	0	7	[0, 0, 0]	n/a	0	1	500	LLTG22	LLTG23	1250.0	200	100	300	catFR3	0	R1260D
957.191	0.984	1005022	WORD_OFF	n/a	n/a	ROOSTER	n/a	1	0	7	[0, 0, 0]	n/a	0	1	0	n/a	n/a	0.0	0	0	0	catFR3	0	R1260D
958.175	1.6	1006005	WORD	n/a	wordpools/wordpool.txt	HEN	FarmAnimals	2	0	7	[0, 0, 0]	n/a	0	1	0	n/a	n/a	0.0	0	0	0	catFR3	0	R1260D
959.791	0.85	1007621	WORD_OFF	n/a	n/a	HEN	n/a	2	0	7	[0, 0, 0]	n/a	0	1	0	n/a	n/a	0.0	0	0	0	catFR3	0	R1260D
960.641	1.6	1008471	WORD	n/a	wordpools/wordpool.txt	BUTTERFLY	Insects	3	0	7	[0, 0, 0]	n/a	0	1	0	n/a	n/a	0.0	0	0	0	catFR3	0	R1260D
962.259	0.967	1010089	WORD_OFF	n/a	n/a	BUTTERFLY	n/a	3	0	7	[0, 0, 0]	n/a	0	1	0	n/a	n/a	0.0	0	0	0	catFR3	0	R1260D
963.226	1.6	1011056	WORD	n/a	wordpools/wordpool.txt	CRICKET	Insects	4	0	7	[0, 0, 0]	n/a	0	1	0	n/a	n/a	0.0	0	0	0	catFR3	0	R1260D
963.427	0.5	1011257	STIM_ON	n/a	n/a	CRICKET	n/a	4	0	7	[0, 0, 0]	n/a	1	1	500	LLTG22	LLTG23	1250.0	200	100	300	catFR3	0	R1260D
963.927	0.915	1011757	STIM_OFF	n/a	n/a	n/a	n/a	4	0	7	[0, 0, 0]	n/a	0	1	500	LLTG22	LLTG23	1250.0	200	100	300	catFR3	0	R1260D
964.842	0.917	1012672	WORD_OFF	n/a	n/a	CRICKET	n/a	4	0	7	[0, 0, 0]	n/a	0	1	0	n/a	n/a	0.0	0	0	0	catFR3	0	R1260D
965.759	1.6	1013589	WORD	n/a	wordpools/wordpool.txt	FOG	Weather	5	0	7	[0, 0, 0]	n/a	0	1	0	n/a	n/a	0.0	0	0	0	catFR3	0	R1260D
965.959	0.5	1013789	STIM_ON	n/a	n/a	FOG	n/a	5	0	7	[0, 0, 0]	n/a	1	1	500	LLTG22	LLTG23	1250.0	200	100	300	catFR3	0	R1260D
966.459	0.918	1014289	STIM_OFF	n/a	n/a	n/a	n/a	5	0	7	[0, 0, 0]	n/a	0	1	500	LLTG22	LLTG23	1250.0	200	100	300	catFR3	0	R1260D
967.377	0.833	1015207	WORD_OFF	n/a	n/a	FOG	n/a	5	0	7	[0, 0, 0]	n/a	0	1	0	n/a	n/a	0.0	0	0	0	catFR3	0	R1260D
968.21	1.6	1016040	WORD	n/a	wordpools/wordpool.txt	HUMIDITY	Weather	6	0	7	[0, 0, 0]	n/a	0	1	0	n/a	n/a	0.0	0	0	0	catFR3	0	R1260D
969.826	0.884	1017656	WORD_OFF	n/a	n/a	HUMIDITY	n/a	6	0	7	[0, 0, 0]	n/a	0	1	0	n/a	n/a	0.0	0	0	0	catFR3	0	R1260D
970.71	1.6	1018540	WORD	n/a	wordpools/wordpool.txt	TURKEY	FarmAnimals	7	0	7	[0, 0, 0]	n/a	0	1	0	n/a	n/a	0.0	0	0	0	catFR3	0	R1260D
970.909	0.5	1018739	STIM_ON	n/a	n/a	TURKEY	n/a	7	0	7	[0, 0, 0]	n/a	1	1	500	LLTG22	LLTG23	1250.0	200	100	300	catFR3	0	R1260D
971.409	0.919	1019239	STIM_OFF	n/a	n/a	n/a	n/a	7	0	7	[0, 0, 0]	n/a	0	1	500	LLTG22	LLTG23	1250.0	200	100	300	catFR3	0	R1260D
972.328	0.916	1020158	WORD_OFF	n/a	n/a	TURKEY	n/a	7	0	7	[0, 0, 0]	n/a	0	1	0	n/a	n/a	0.0	0	0	0	catFR3	0	R1260D
973.244	1.6	1021074	WORD	n/a	wordpools/wordpool.txt	GOAT	FarmAnimals	8	0	7	[0, 0, 0]	n/a	0	1	0	n/a	n/a	0.0	0	0	0	catFR3	0	R1260D
973.449	0.5	1021279	STIM_ON	n/a	n/a	GOAT	n/a	8	0	7	[0, 0, 0]	n/a	1	1	500	LLTG22	LLTG23	1250.0	200	100	300	catFR3	0	R1260D
973.949	0.911	1021779	STIM_OFF	n/a	n/a	n/a	n/a	8	0	7	[0, 0, 0]	n/a	0	1	500	LLTG22	LLTG23	1250.0	200	100	300	catFR3	0	R1260D
974.86	0.851	1022690	WORD_OFF	n/a	n/a	GOAT	n/a	8	0	7	[0, 0, 0]	n/a	0	1	0	n/a	n/a	0.0	0	0	0	catFR3	0	R1260D
975.711	1.6	1023541	WORD	n/a	wordpools/wordpool.txt	LADYBUG	Insects	9	0	7	[0, 0, 0]	n/a	0	1	0	n/a	n/a	0.0	0	0	0	catFR3	0	R1260D
975.913	0.5	1023743	STIM_ON	n/a	n/a	LADYBUG	n/a	9	0	7	[0, 0, 0]	n/a	1	1	500	LLTG22	LLTG23	1250.0	200	100	300	catFR3	0	R1260D
976.413	0.916	1024242	STIM_OFF	n/a	n/a	n/a	n/a	9	0	7	[0, 0, 0]	n/a	0	1	500	LLTG22	LLTG23	1250.0	200	100	300	catFR3	0	R1260D
977.329	0.95	1025158	WORD_OFF	n/a	n/a	LADYBUG	n/a	9	0	7	[0, 0, 0]	n/a	0	1	0	n/a	n/a	0.0	0	0	0	catFR3	0	R1260D
978.279	1.6	1026108	WORD	n/a	wordpools/wordpool.txt	ROACH	Insects	10	0	7	[0, 0, 0]	n/a	0	1	0	n/a	n/a	0.0	0	0	0	catFR3	0	R1260D
979.896	0.949	1027725	WORD_OFF	n/a	n/a	ROACH	n/a	10	0	7	[0, 0, 0]	n/a	0	1	0	n/a	n/a	0.0	0	0	0	catFR3	0	R1260D
980.845	1.6	1028674	WORD	n/a	wordpools/wordpool.txt	RAIN	Weather	11	0	7	[0, 0, 0]	n/a	0	1	0	n/a	n/a	0.0	0	0	0	catFR3	0	R1260D
981.051	0.5	1028880	STIM_ON	n/a	n/a	RAIN	n/a	11	0	7	[0, 0, 0]	n/a	1	1	500	LLTG22	LLTG23	1250.0	200	100	300	catFR3	0	R1260D
981.551	0.912	1029380	STIM_OFF	n/a	n/a	n/a	n/a	11	0	7	[0, 0, 0]	n/a	0	1	500	LLTG22	LLTG23	1250.0	200	100	300	catFR3	0	R1260D
982.463	0.933	1030292	WORD_OFF	n/a	n/a	RAIN	n/a	11	0	7	[0, 0, 0]	n/a	0	1	0	n/a	n/a	0.0	0	0	0	catFR3	0	R1260D
983.396	1.6	1031225	WORD	n/a	wordpools/wordpool.txt	THUNDER	Weather	12	0	7	[0, 0, 0]	n/a	0	1	0	n/a	n/a	0.0	0	0	0	catFR3	0	R1260D
983.603	0.5	1031432	STIM_ON	n/a	n/a	n/a	n/a	11	0	7	[0, 0, 0]	n/a	1	1	500	LLTG22	LLTG23	1250.0	200	100	300	catFR3	0	R1260D
984.103	0.91	1031932	STIM_OFF	n/a	n/a	n/a	n/a	11	0	7	[0, 0, 0]	n/a	0	1	500	LLTG22	LLTG23	1250.0	200	100	300	catFR3	0	R1260D
985.013	0.0	1032842	ENCODING_END	n/a	n/a	n/a	n/a	-999	0	7	[0, 0, 0]	n/a	0	1	0	n/a	n/a	0.0	0	0	0	catFR3	0	R1260D
985.013	0.056	1032842	WORD_OFF	n/a	n/a	THUNDER	n/a	12	0	7	[0, 0, 0]	n/a	0	1	0	n/a	n/a	0.0	0	0	0	catFR3	0	R1260D
985.069	0.001	1032898	DISTRACT_START	n/a	n/a	n/a	n/a	-999	0	7	[0, 0, 0]	n/a	0	1	0	n/a	n/a	0.0	0	0	0	catFR3	0	R1260D
985.07	0.01	1032899	START	n/a	n/a	n/a	n/a	-999	0	7	[-999, -999, -999]	n/a	0	1	0	n/a	n/a	0.0	0	0	0	catFR3	0	R1260D
985.08	6.084	1032909	PROB	6.062	n/a	n/a	n/a	-999	0	7	[3, 5, 7]	15	0	1	0	n/a	n/a	0.0	0	0	0	catFR3	0	R1260D
991.164	4.068	1038993	PROB	4.033	n/a	n/a	n/a	-999	0	7	[8, 2, 9]	19	0	1	0	n/a	n/a	0.0	0	0	0	catFR3	0	R1260D
995.232	6.784	1043060	PROB	6.748	n/a	n/a	n/a	-999	0	7	[4, 4, 3]	11	0	1	0	n/a	n/a	0.0	0	0	0	catFR3	0	R1260D
1002.016	11.781	1049844	PROB	11.781	n/a	n/a	n/a	-999	0	7	[9, 8, 6]	23	0	1	0	n/a	n/a	0.0	0	0	0	catFR3	0	R1260D
1013.797	0.021	1061624	STOP	n/a	n/a	n/a	n/a	-999	0	7	[-999, -999, -999]	n/a	0	1	0	n/a	n/a	0.0	0	0	0	catFR3	0	R1260D
1013.818	0.65	1061645	DISTRACT_END	n/a	n/a	n/a	n/a	-999	0	7	[0, 0, 0]	n/a	0	1	0	n/a	n/a	0.0	0	0	0	catFR3	0	R1260D
1014.468	0.5	1062295	RETRIEVAL_ORIENT	n/a	n/a	n/a	n/a	-999	0	7	[0, 0, 0]	n/a	0	1	0	n/a	n/a	0.0	0	0	0	catFR3	0	R1260D
1014.986	2.533	1062813	REC_START	n/a	n/a	n/a	n/a	-999	0	7	[0, 0, 0]	n/a	0	1	0	n/a	n/a	0.0	0	0	0	catFR3	0	R1260D
1017.519	10.753	1065346	REC_WORD_VV	2.533	n/a	<>	n/a	-999	0	7	[0, 0, 0]	n/a	0	1	0	n/a	n/a	0.0	0	0	0	catFR3	0	R1260D
1028.272	16.724	1076099	REC_WORD_VV	13.286	n/a	<>	n/a	-999	0	7	[0, 0, 0]	n/a	0	1	0	n/a	n/a	0.0	0	0	0	catFR3	0	R1260D
1044.996	28.616	1092822	REC_END	n/a	n/a	n/a	n/a	-999	0	7	[0, 0, 0]	n/a	0	1	0	n/a	n/a	0.0	0	0	0	catFR3	0	R1260D
1073.612	0.5	1121436	TRIAL	n/a	n/a	n/a	n/a	-999	0	8	[0, 0, 0]	n/a	0	0	0	n/a	n/a	0.0	0	0	0	catFR3	0	R1260D
1074.112	10.0	1121936	COUNTDOWN_START	n/a	n/a	n/a	n/a	-999	0	8	[0, 0, 0]	n/a	0	0	0	n/a	n/a	0.0	0	0	0	catFR3	0	R1260D
1084.54	0.007	1132363	COUNTDOWN_END	n/a	n/a	n/a	n/a	-999	0	8	[0, 0, 0]	n/a	0	0	0	n/a	n/a	0.0	0	0	0	catFR3	0	R1260D
1084.547	1.6	1132370	ORIENT	n/a	n/a	n/a	n/a	-999	0	8	[0, 0, 0]	n/a	0	0	0	n/a	n/a	0.0	0	0	0	catFR3	0	R1260D
1086.165	1.967	1133988	ORIENT_OFF	n/a	n/a	n/a	n/a	-999	0	8	[0, 0, 0]	n/a	0	0	0	n/a	n/a	0.0	0	0	0	catFR3	0	R1260D
1088.132	1.6	1135955	WORD	n/a	wordpools/wordpool.txt	SKIRT	Clothing	1	0	8	[0, 0, 0]	n/a	0	0	0	n/a	n/a	0.0	0	0	0	catFR3	0	R1260D
1089.748	0.8	1137571	WORD_OFF	n/a	n/a	SKIRT	n/a	1	0	8	[0, 0, 0]	n/a	0	0	0	n/a	n/a	0.0	0	0	0	catFR3	0	R1260D
1090.548	1.6	1138371	WORD	n/a	wordpools/wordpool.txt	SHIRT	Clothing	2	0	8	[0, 0, 0]	n/a	0	0	0	n/a	n/a	0.0	0	0	0	catFR3	0	R1260D
1092.149	0.901	1139972	WORD_OFF	n/a	n/a	SHIRT	n/a	2	0	8	[0, 0, 0]	n/a	0	0	0	n/a	n/a	0.0	0	0	0	catFR3	0	R1260D
1093.05	1.6	1140873	WORD	n/a	wordpools/wordpool.txt	BEE	Insects	3	0	8	[0, 0, 0]	n/a	0	0	0	n/a	n/a	0.0	0	0	0	catFR3	0	R1260D
1094.666	0.767	1142489	WORD_OFF	n/a	n/a	BEE	n/a	3	0	8	[0, 0, 0]	n/a	0	0	0	n/a	n/a	0.0	0	0	0	catFR3	0	R1260D
1095.433	1.6	1143256	WORD	n/a	wordpools/wordpool.txt	FLY	Insects	4	0	8	[0, 0, 0]	n/a	0	0	0	n/a	n/a	0.0	0	0	0	catFR3	0	R1260D
1097.05	0.967	1144873	WORD_OFF	n/a	n/a	FLY	n/a	4	0	8	[0, 0, 0]	n/a	0	0	0	n/a	n/a	0.0	0	0	0	catFR3	0	R1260D
1098.017	1.6	1145840	WORD	n/a	wordpools/wordpool.txt	FOREST	Landscapes	5	0	8	[0, 0, 0]	n/a	0	0	0	n/a	n/a	0.0	0	0	0	catFR3	0	R1260D
1099.633	0.885	1147456	WORD_OFF	n/a	n/a	FOREST	n/a	5	0	8	[0, 0, 0]	n/a	0	0	0	n/a	n/a	0.0	0	0	0	catFR3	0	R1260D
1100.518	1.6	1148341	WORD	n/a	wordpools/wordpool.txt	OCEAN	Landscapes	6	0	8	[0, 0, 0]	n/a	0	0	0	n/a	n/a	0.0	0	0	0	catFR3	0	R1260D
1102.135	1.016	1149958	WORD_OFF	n/a	n/a	OCEAN	n/a	6	0	8	[0, 0, 0]	n/a	0	0	0	n/a	n/a	0.0	0	0	0	catFR3	0	R1260D
1103.151	1.6	1150973	WORD	n/a	wordpools/wordpool.txt	SHORTS	Clothing	7	0	8	[0, 0, 0]	n/a	0	0	0	n/a	n/a	0.0	0	0	0	catFR3	0	R1260D
1104.767	0.951	1152589	WORD_OFF	n/a	n/a	SHORTS	n/a	7	0	8	[0, 0, 0]	n/a	0	0	0	n/a	n/a	0.0	0	0	0	catFR3	0	R1260D
1105.718	1.6	1153540	WORD	n/a	wordpools/wordpool.txt	SHOES	Clothing	8	0	8	[0, 0, 0]	n/a	0	0	0	n/a	n/a	0.0	0	0	0	catFR3	0	R1260D
1107.336	0.933	1155158	WORD_OFF	n/a	n/a	SHOES	n/a	8	0	8	[0, 0, 0]	n/a	0	0	0	n/a	n/a	0.0	0	0	0	catFR3	0	R1260D
1108.269	1.6	1156091	WORD	n/a	wordpools/wordpool.txt	ANT	Insects	9	0	8	[0, 0, 0]	n/a	0	0	0	n/a	n/a	0.0	0	0	0	catFR3	0	R1260D
1109.885	0.984	1157707	WORD_OFF	n/a	n/a	ANT	n/a	9	0	8	[0, 0, 0]	n/a	0	0	0	n/a	n/a	0.0	0	0	0	catFR3	0	R1260D
1110.869	1.6	1158691	WORD	n/a	wordpools/wordpool.txt	SPIDER	Insects	10	0	8	[0, 0, 0]	n/a	0	0	0	n/a	n/a	0.0	0	0	0	catFR3	0	R1260D
1112.486	0.951	1160308	WORD_OFF	n/a	n/a	SPIDER	n/a	10	0	8	[0, 0, 0]	n/a	0	0	0	n/a	n/a	0.0	0	0	0	catFR3	0	R1260D
1113.437	1.6	1161259	WORD	n/a	wordpools/wordpool.txt	STREAM	Landscapes	11	0	8	[0, 0, 0]	n/a	0	0	0	n/a	n/a	0.0	0	0	0	catFR3	0	R1260D
1115.054	0.765	1162876	WORD_OFF	n/a	n/a	STREAM	n/a	11	0	8	[0, 0, 0]	n/a	0	0	0	n/a	n/a	0.0	0	0	0	catFR3	0	R1260D
1115.819	1.6	1163641	WORD	n/a	wordpools/wordpool.txt	LAKE	Landscapes	12	0	8	[0, 0, 0]	n/a	0	0	0	n/a	n/a	0.0	0	0	0	catFR3	0	R1260D
1117.437	0.001	1165259	WORD_OFF	n/a	n/a	LAKE	n/a	12	0	8	[0, 0, 0]	n/a	0	0	0	n/a	n/a	0.0	0	0	0	catFR3	0	R1260D
1117.438	0.059	1165260	ENCODING_END	n/a	n/a	n/a	n/a	-999	0	8	[0, 0, 0]	n/a	0	0	0	n/a	n/a	0.0	0	0	0	catFR3	0	R1260D
1117.497	0.0	1165319	DISTRACT_START	n/a	n/a	n/a	n/a	-999	0	8	[0, 0, 0]	n/a	0	0	0	n/a	n/a	0.0	0	0	0	catFR3	0	R1260D
1117.497	0.007	1165319	START	n/a	n/a	n/a	n/a	-999	0	8	[-999, -999, -999]	n/a	0	0	0	n/a	n/a	0.0	0	0	0	catFR3	0	R1260D
1117.504	5.984	1165326	PROB	5.958	n/a	n/a	n/a	-999	0	8	[9, 2, 7]	18	0	0	0	n/a	n/a	0.0	0	0	0	catFR3	0	R1260D
1123.488	21.108	1171309	PROB	21.108	n/a	n/a	n/a	-999	0	8	[9, 8, 8]	26	0	0	0	n/a	n/a	0.0	0	0	0	catFR3	0	R1260D
1144.596	0.012	1192416	STOP	n/a	n/a	n/a	n/a	-999	0	8	[-999, -999, -999]	n/a	0	0	0	n/a	n/a	0.0	0	0	0	catFR3	0	R1260D
1144.608	0.668	1192428	DISTRACT_END	n/a	n/a	n/a	n/a	-999	0	8	[0, 0, 0]	n/a	0	0	0	n/a	n/a	0.0	0	0	0	catFR3	0	R1260D
1145.276	0.5	1193096	RETRIEVAL_ORIENT	n/a	n/a	n/a	n/a	-999	0	8	[0, 0, 0]	n/a	0	0	0	n/a	n/a	0.0	0	0	0	catFR3	0	R1260D
1145.793	5.233	1193613	REC_START	n/a	n/a	n/a	n/a	-999	0	8	[0, 0, 0]	n/a	0	0	0	n/a	n/a	0.0	0	0	0	catFR3	0	R1260D
1151.026	2.723	1198846	REC_WORD_VV	5.233	n/a	<>	n/a	-999	0	8	[0, 0, 0]	n/a	0	0	0	n/a	n/a	0.0	0	0	0	catFR3	0	R1260D
1153.749	2.749	1201569	REC_WORD_VV	7.956	n/a	<>	n/a	-999	0	8	[0, 0, 0]	n/a	0	0	0	n/a	n/a	0.0	0	0	0	catFR3	0	R1260D
1156.498	4.314	1204317	REC_WORD_VV	10.705	n/a	<>	n/a	-999	0	8	[0, 0, 0]	n/a	0	0	0	n/a	n/a	0.0	0	0	0	catFR3	0	R1260D
1160.812	2.386	1208631	REC_WORD	15.019	n/a	COUCH	n/a	-999	0	8	[0, 0, 0]	n/a	0	0	0	n/a	n/a	0.0	0	0	0	catFR3	0	R1260D
1163.198	3.942	1211017	REC_WORD	17.405	n/a	CHAIR	n/a	-999	0	8	[0, 0, 0]	n/a	0	0	0	n/a	n/a	0.0	0	0	0	catFR3	0	R1260D
1167.14	2.657	1214959	REC_WORD_VV	21.347	n/a	<>	n/a	-999	0	8	[0, 0, 0]	n/a	0	0	0	n/a	n/a	0.0	0	0	0	catFR3	0	R1260D
1169.797	2.936	1217616	REC_WORD_VV	24.004	n/a	<>	n/a	-999	0	8	[0, 0, 0]	n/a	0	0	0	n/a	n/a	0.0	0	0	0	catFR3	0	R1260D
1172.733	1.215	1220552	REC_WORD_VV	26.94	n/a	<>	n/a	-999	0	8	[0, 0, 0]	n/a	0	0	0	n/a	n/a	0.0	0	0	0	catFR3	0	R1260D
1173.948	0.706	1221767	REC_WORD	28.155	n/a	DAFFODIL	n/a	-999	0	8	[0, 0, 0]	n/a	0	0	0	n/a	n/a	0.0	0	0	0	catFR3	0	R1260D
1174.654	1.149	1222472	REC_WORD_VV	28.861	n/a	<>	n/a	-999	0	8	[0, 0, 0]	n/a	0	0	0	n/a	n/a	0.0	0	0	0	catFR3	0	R1260D
1175.803	9.73	1223621	REC_END	n/a	n/a	n/a	n/a	-999	0	8	[0, 0, 0]	n/a	0	0	0	n/a	n/a	0.0	0	0	0	catFR3	0	R1260D
1185.533	0.5	1233351	TRIAL	n/a	n/a	n/a	n/a	-999	0	9	[0, 0, 0]	n/a	0	1	0	n/a	n/a	0.0	0	0	0	catFR3	0	R1260D
1186.033	10.0	1233851	COUNTDOWN_START	n/a	n/a	n/a	n/a	-999	0	9	[0, 0, 0]	n/a	0	1	0	n/a	n/a	0.0	0	0	0	catFR3	0	R1260D
1196.461	0.007	1244278	COUNTDOWN_END	n/a	n/a	n/a	n/a	-999	0	9	[0, 0, 0]	n/a	0	1	0	n/a	n/a	0.0	0	0	0	catFR3	0	R1260D
1196.468	1.6	1244285	ORIENT	n/a	n/a	n/a	n/a	-999	0	9	[0, 0, 0]	n/a	0	1	0	n/a	n/a	0.0	0	0	0	catFR3	0	R1260D
1198.085	2.167	1245902	ORIENT_OFF	n/a	n/a	n/a	n/a	-999	0	9	[0, 0, 0]	n/a	0	1	0	n/a	n/a	0.0	0	0	0	catFR3	0	R1260D
1200.252	1.6	1248069	WORD	n/a	wordpools/wordpool.txt	GRATER	KitchenTools	1	0	9	[0, 0, 0]	n/a	0	1	0	n/a	n/a	0.0	0	0	0	catFR3	0	R1260D
1201.868	0.934	1249685	WORD_OFF	n/a	n/a	GRATER	n/a	1	0	9	[0, 0, 0]	n/a	0	1	0	n/a	n/a	0.0	0	0	0	catFR3	0	R1260D
1202.802	1.6	1250619	WORD	n/a	wordpools/wordpool.txt	CORKSCREW	KitchenTools	2	0	9	[0, 0, 0]	n/a	0	1	0	n/a	n/a	0.0	0	0	0	catFR3	0	R1260D
1204.42	0.967	1252237	WORD_OFF	n/a	n/a	CORKSCREW	n/a	2	0	9	[0, 0, 0]	n/a	0	1	0	n/a	n/a	0.0	0	0	0	catFR3	0	R1260D
1205.387	1.6	1253204	WORD	n/a	wordpools/wordpool.txt	BEER	Beverages	3	0	9	[0, 0, 0]	n/a	0	1	0	n/a	n/a	0.0	0	0	0	catFR3	0	R1260D
1207.004	0.95	1254821	WORD_OFF	n/a	n/a	BEER	n/a	3	0	9	[0, 0, 0]	n/a	0	1	0	n/a	n/a	0.0	0	0	0	catFR3	0	R1260D
1207.954	1.6	1255771	WORD	n/a	wordpools/wordpool.txt	TEA	Beverages	4	0	9	[0, 0, 0]	n/a	0	1	0	n/a	n/a	0.0	0	0	0	catFR3	0	R1260D
1208.162	0.5	1255979	STIM_ON	n/a	n/a	TEA	n/a	4	0	9	[0, 0, 0]	n/a	1	1	500	LLTG22	LLTG23	1250.0	200	100	300	catFR3	0	R1260D
1208.662	0.908	1256479	STIM_OFF	n/a	n/a	n/a	n/a	4	0	9	[0, 0, 0]	n/a	0	1	500	LLTG22	LLTG23	1250.0	200	100	300	catFR3	0	R1260D
1209.57	0.851	1257387	WORD_OFF	n/a	n/a	TEA	n/a	4	0	9	[0, 0, 0]	n/a	0	1	0	n/a	n/a	0.0	0	0	0	catFR3	0	R1260D
1210.421	1.6	1258238	WORD	n/a	wordpools/wordpool.txt	WOODS	Landscapes	5	0	9	[0, 0, 0]	n/a	0	1	0	n/a	n/a	0.0	0	0	0	catFR3	0	R1260D
1210.632	0.5	1258448	STIM_ON	n/a	n/a	WOODS	n/a	5	0	9	[0, 0, 0]	n/a	1	1	500	LLTG22	LLTG23	1250.0	200	100	300	catFR3	0	R1260D
1211.132	0.906	1258948	STIM_OFF	n/a	n/a	n/a	n/a	5	0	9	[0, 0, 0]	n/a	0	1	500	LLTG22	LLTG23	1250.0	200	100	300	catFR3	0	R1260D
1212.038	0.95	1259854	WORD_OFF	n/a	n/a	WOODS	n/a	5	0	9	[0, 0, 0]	n/a	0	1	0	n/a	n/a	0.0	0	0	0	catFR3	0	R1260D
1212.988	1.6	1260804	WORD	n/a	wordpools/wordpool.txt	CREEK	Landscapes	6	0	9	[0, 0, 0]	n/a	0	1	0	n/a	n/a	0.0	0	0	0	catFR3	0	R1260D
1213.197	0.5	1261013	STIM_ON	n/a	n/a	CREEK	n/a	6	0	9	[0, 0, 0]	n/a	1	1	500	LLTG22	LLTG23	1250.0	200	100	300	catFR3	0	R1260D
1213.697	0.907	1261513	STIM_OFF	n/a	n/a	n/a	n/a	6	0	9	[0, 0, 0]	n/a	0	1	500	LLTG22	LLTG23	1250.0	200	100	300	catFR3	0	R1260D
1214.604	0.935	1262420	WORD_OFF	n/a	n/a	CREEK	n/a	6	0	9	[0, 0, 0]	n/a	0	1	0	n/a	n/a	0.0	0	0	0	catFR3	0	R1260D
1215.539	1.6	1263355	WORD	n/a	wordpools/wordpool.txt	SODA	Beverages	7	0	9	[0, 0, 0]	n/a	0	1	0	n/a	n/a	0.0	0	0	0	catFR3	0	R1260D
1215.751	0.5	1263567	STIM_ON	n/a	n/a	SODA	n/a	7	0	9	[0, 0, 0]	n/a	1	1	500	LLTG22	LLTG23	1250.0	200	100	300	catFR3	0	R1260D
1216.251	0.905	1264067	STIM_OFF	n/a	n/a	n/a	n/a	7	0	9	[0, 0, 0]	n/a	0	1	500	LLTG22	LLTG23	1250.0	200	100	300	catFR3	0	R1260D
1217.156	0.85	1264972	WORD_OFF	n/a	n/a	SODA	n/a	7	0	9	[0, 0, 0]	n/a	0	1	0	n/a	n/a	0.0	0	0	0	catFR3	0	R1260D
1218.006	1.6	1265822	WORD	n/a	wordpools/wordpool.txt	WATER	Beverages	8	0	9	[0, 0, 0]	n/a	0	1	0	n/a	n/a	0.0	0	0	0	catFR3	0	R1260D
1219.622	0.983	1267438	WORD_OFF	n/a	n/a	WATER	n/a	8	0	9	[0, 0, 0]	n/a	0	1	0	n/a	n/a	0.0	0	0	0	catFR3	0	R1260D
1220.605	1.6	1268421	WORD	n/a	wordpools/wordpool.txt	SPATULA	KitchenTools	9	0	9	[0, 0, 0]	n/a	0	1	0	n/a	n/a	0.0	0	0	0	catFR3	0	R1260D
1220.822	0.5	1268638	STIM_ON	n/a	n/a	SPATULA	n/a	9	0	9	[0, 0, 0]	n/a	1	1	500	LLTG22	LLTG23	1250.0	200	100	300	catFR3	0	R1260D
1221.322	0.901	1269138	STIM_OFF	n/a	n/a	n/a	n/a	9	0	9	[0, 0, 0]	n/a	0	1	500	LLTG22	LLTG23	1250.0	200	100	300	catFR3	0	R1260D
1222.223	0.967	1270039	WORD_OFF	n/a	n/a	SPATULA	n/a	9	0	9	[0, 0, 0]	n/a	0	1	0	n/a	n/a	0.0	0	0	0	catFR3	0	R1260D
1223.19	1.6	1271006	WORD	n/a	wordpools/wordpool.txt	LADLE	KitchenTools	10	0	9	[0, 0, 0]	n/a	0	1	0	n/a	n/a	0.0	0	0	0	catFR3	0	R1260D
1223.405	0.5	1271221	STIM_ON	n/a	n/a	LADLE	n/a	10	0	9	[0, 0, 0]	n/a	1	1	500	LLTG22	LLTG23	1250.0	200	100	300	catFR3	0	R1260D
1223.905	0.901	1271721	STIM_OFF	n/a	n/a	n/a	n/a	10	0	9	[0, 0, 0]	n/a	0	1	500	LLTG22	LLTG23	1250.0	200	100	300	catFR3	0	R1260D
1224.806	0.883	1272622	WORD_OFF	n/a	n/a	LADLE	n/a	10	0	9	[0, 0, 0]	n/a	0	1	0	n/a	n/a	0.0	0	0	0	catFR3	0	R1260D
1225.689	1.6	1273505	WORD	n/a	wordpools/wordpool.txt	RIVER	Landscapes	11	0	9	[0, 0, 0]	n/a	0	1	0	n/a	n/a	0.0	0	0	0	catFR3	0	R1260D
1225.905	0.5	1273721	STIM_ON	n/a	n/a	RIVER	n/a	11	0	9	[0, 0, 0]	n/a	1	1	500	LLTG22	LLTG23	1250.0	200	100	300	catFR3	0	R1260D
1226.405	0.885	1274221	STIM_OFF	n/a	n/a	n/a	n/a	11	0	9	[0, 0, 0]	n/a	0	1	500	LLTG22	LLTG23	1250.0	200	100	300	catFR3	0	R1260D
1227.29	0.951	1275106	WORD_OFF	n/a	n/a	RIVER	n/a	11	0	9	[0, 0, 0]	n/a	0	1	0	n/a	n/a	0.0	0	0	0	catFR3	0	R1260D
1228.241	1.6	1276057	WORD	n/a	wordpools/wordpool.txt	MOUNTAIN	Landscapes	12	0	9	[0, 0, 0]	n/a	0	1	0	n/a	n/a	0.0	0	0	0	catFR3	0	R1260D
1228.458	0.5	1276274	STIM_ON	n/a	n/a	n/a	n/a	11	0	9	[0, 0, 0]	n/a	1	1	500	LLTG22	LLTG23	1250.0	200	100	300	catFR3	0	R1260D
1228.958	0.899	1276773	STIM_OFF	n/a	n/a	n/a	n/a	11	0	9	[0, 0, 0]	n/a	0	1	500	LLTG22	LLTG23	1250.0	200	100	300	catFR3	0	R1260D
1229.857	0.0	1277672	ENCODING_END	n/a	n/a	n/a	n/a	-999	0	9	[0, 0, 0]	n/a	0	1	0	n/a	n/a	0.0	0	0	0	catFR3	0	R1260D
1229.857	0.061	1277672	WORD_OFF	n/a	n/a	MOUNTAIN	n/a	12	0	9	[0, 0, 0]	n/a	0	1	0	n/a	n/a	0.0	0	0	0	catFR3	0	R1260D
1229.918	0.0	1277733	DISTRACT_START	n/a	n/a	n/a	n/a	-999	0	9	[0, 0, 0]	n/a	0	1	0	n/a	n/a	0.0	0	0	0	catFR3	0	R1260D
1229.918	0.023	1277733	START	n/a	n/a	n/a	n/a	-999	0	9	[-999, -999, -999]	n/a	0	1	0	n/a	n/a	0.0	0	0	0	catFR3	0	R1260D
1229.941	8.552	1277756	PROB	8.529	n/a	n/a	n/a	-999	0	9	[9, 9, 8]	25	0	1	0	n/a	n/a	0.0	0	0	0	catFR3	0	R1260D
1238.493	4.651	1286308	PROB	4.617	n/a	n/a	n/a	-999	0	9	[8, 2, 4]	14	0	1	0	n/a	n/a	0.0	0	0	0	catFR3	0	R1260D
1243.144	8.125	1290959	PROB	8.125	n/a	n/a	n/a	-999	0	9	[9, 9, 4]	22	0	1	0	n/a	n/a	0.0	0	0	0	catFR3	0	R1260D
1251.269	0.01	1299083	STOP	n/a	n/a	n/a	n/a	-999	0	9	[-999, -999, -999]	n/a	0	1	0	n/a	n/a	0.0	0	0	0	catFR3	0	R1260D
1251.279	0.716	1299093	DISTRACT_END	n/a	n/a	n/a	n/a	-999	0	9	[0, 0, 0]	n/a	0	1	0	n/a	n/a	0.0	0	0	0	catFR3	0	R1260D
1251.995	0.5	1299809	RETRIEVAL_ORIENT	n/a	n/a	n/a	n/a	-999	0	9	[0, 0, 0]	n/a	0	1	0	n/a	n/a	0.0	0	0	0	catFR3	0	R1260D
1252.513	2.361	1300327	REC_START	n/a	n/a	n/a	n/a	-999	0	9	[0, 0, 0]	n/a	0	1	0	n/a	n/a	0.0	0	0	0	catFR3	0	R1260D
1254.874	1.517	1302688	REC_WORD_VV	2.361	n/a	<>	n/a	-999	0	9	[0, 0, 0]	n/a	0	1	0	n/a	n/a	0.0	0	0	0	catFR3	0	R1260D
1256.391	6.75	1304205	REC_WORD_VV	3.878	n/a	<>	n/a	-999	0	9	[0, 0, 0]	n/a	0	1	0	n/a	n/a	0.0	0	0	0	catFR3	0	R1260D
1263.141	5.373	1310955	REC_WORD_VV	10.628	n/a	<>	n/a	-999	0	9	[0, 0, 0]	n/a	0	1	0	n/a	n/a	0.0	0	0	0	catFR3	0	R1260D
1268.514	2.46	1316327	REC_WORD	16.001	n/a	DOG	n/a	-999	0	9	[0, 0, 0]	n/a	0	1	0	n/a	n/a	0.0	0	0	0	catFR3	0	R1260D
1270.974	5.966	1318787	REC_WORD_VV	18.461	n/a	<>	n/a	-999	0	9	[0, 0, 0]	n/a	0	1	0	n/a	n/a	0.0	0	0	0	catFR3	0	R1260D
1276.94	2.528	1324753	REC_WORD	24.427	n/a	TV	n/a	-999	0	9	[0, 0, 0]	n/a	0	1	0	n/a	n/a	0.0	0	0	0	catFR3	0	R1260D
1279.468	3.056	1327281	REC_WORD_VV	26.955	n/a	<>	n/a	-999	0	9	[0, 0, 0]	n/a	0	1	0	n/a	n/a	0.0	0	0	0	catFR3	0	R1260D
1282.524	22.664	1330337	REC_END	n/a	n/a	n/a	n/a	-999	0	9	[0, 0, 0]	n/a	0	1	0	n/a	n/a	0.0	0	0	0	catFR3	0	R1260D
1305.188	0.5	1352999	TRIAL	n/a	n/a	n/a	n/a	-999	0	10	[0, 0, 0]	n/a	0	1	0	n/a	n/a	0.0	0	0	0	catFR3	0	R1260D
1305.688	10.0	1353499	COUNTDOWN_START	n/a	n/a	n/a	n/a	-999	0	10	[0, 0, 0]	n/a	0	1	0	n/a	n/a	0.0	0	0	0	catFR3	0	R1260D
1316.116	0.008	1363927	COUNTDOWN_END	n/a	n/a	n/a	n/a	-999	0	10	[0, 0, 0]	n/a	0	1	0	n/a	n/a	0.0	0	0	0	catFR3	0	R1260D
1316.124	1.6	1363935	ORIENT	n/a	n/a	n/a	n/a	-999	0	10	[0, 0, 0]	n/a	0	1	0	n/a	n/a	0.0	0	0	0	catFR3	0	R1260D
1317.74	2.083	1365551	ORIENT_OFF	n/a	n/a	n/a	n/a	-999	0	10	[0, 0, 0]	n/a	0	1	0	n/a	n/a	0.0	0	0	0	catFR3	0	R1260D
1319.823	1.6	1367633	WORD	n/a	wordpools/wordpool.txt	VALLEY	Landscapes	1	0	10	[0, 0, 0]	n/a	0	1	0	n/a	n/a	0.0	0	0	0	catFR3	0	R1260D
1320.045	0.5	1367855	STIM_ON	n/a	n/a	VALLEY	n/a	1	0	10	[0, 0, 0]	n/a	1	1	500	LLTG22	LLTG23	1250.0	200	100	300	catFR3	0	R1260D
1320.545	0.879	1368355	STIM_OFF	n/a	n/a	n/a	n/a	1	0	10	[0, 0, 0]	n/a	0	1	500	LLTG22	LLTG23	1250.0	200	100	300	catFR3	0	R1260D
1321.424	0.884	1369234	WORD_OFF	n/a	n/a	VALLEY	n/a	1	0	10	[0, 0, 0]	n/a	0	1	0	n/a	n/a	0.0	0	0	0	catFR3	0	R1260D
1322.308	1.6	1370118	WORD	n/a	wordpools/wordpool.txt	BEACH	Landscapes	2	0	10	[0, 0, 0]	n/a	0	1	0	n/a	n/a	0.0	0	0	0	catFR3	0	R1260D
1322.523	0.5	1370333	STIM_ON	n/a	n/a	BEACH	n/a	2	0	10	[0, 0, 0]	n/a	1	1	500	LLTG22	LLTG23	1250.0	200	100	300	catFR3	0	R1260D
1323.023	0.902	1370833	STIM_OFF	n/a	n/a	n/a	n/a	2	0	10	[0, 0, 0]	n/a	0	1	500	LLTG22	LLTG23	1250.0	200	100	300	catFR3	0	R1260D
1323.925	0.949	1371735	WORD_OFF	n/a	n/a	BEACH	n/a	2	0	10	[0, 0, 0]	n/a	0	1	0	n/a	n/a	0.0	0	0	0	catFR3	0	R1260D
1324.874	1.6	1372684	WORD	n/a	wordpools/wordpool.txt	SLINKY	Toys	3	0	10	[0, 0, 0]	n/a	0	1	0	n/a	n/a	0.0	0	0	0	catFR3	0	R1260D
1326.475	0.767	1374285	WORD_OFF	n/a	n/a	SLINKY	n/a	3	0	10	[0, 0, 0]	n/a	0	1	0	n/a	n/a	0.0	0	0	0	catFR3	0	R1260D
1327.242	1.6	1375052	WORD	n/a	wordpools/wordpool.txt	DOLLHOUSE	Toys	4	0	10	[0, 0, 0]	n/a	0	1	0	n/a	n/a	0.0	0	0	0	catFR3	0	R1260D
1327.46	0.5	1375270	STIM_ON	n/a	n/a	DOLLHOUSE	n/a	4	0	10	[0, 0, 0]	n/a	1	1	500	LLTG22	LLTG23	1250.0	200	100	300	catFR3	0	R1260D
1327.96	0.898	1375770	STIM_OFF	n/a	n/a	n/a	n/a	4	0	10	[0, 0, 0]	n/a	0	1	500	LLTG22	LLTG23	1250.0	200	100	300	catFR3	0	R1260D
1328.858	0.784	1376668	WORD_OFF	n/a	n/a	DOLLHOUSE	n/a	4	0	10	[0, 0, 0]	n/a	0	1	0	n/a	n/a	0.0	0	0	0	catFR3	0	R1260D
1329.642	1.6	1377452	WORD	n/a	wordpools/wordpool.txt	MIXER	Appliances	5	0	10	[0, 0, 0]	n/a	0	1	0	n/a	n/a	0.0	0	0	0	catFR3	0	R1260D
1329.866	0.5	1377676	STIM_ON	n/a	n/a	MIXER	n/a	5	0	10	[0, 0, 0]	n/a	1	1	500	LLTG22	LLTG23	1250.0	200	100	300	catFR3	0	R1260D
1330.366	0.894	1378176	STIM_OFF	n/a	n/a	n/a	n/a	5	0	10	[0, 0, 0]	n/a	0	1	500	LLTG22	LLTG23	1250.0	200	100	300	catFR3	0	R1260D
1331.26	0.766	1379070	WORD_OFF	n/a	n/a	MIXER	n/a	5	0	10	[0, 0, 0]	n/a	0	1	0	n/a	n/a	0.0	0	0	0	catFR3	0	R1260D
1332.026	1.6	1379836	WORD	n/a	wordpools/wordpool.txt	STOVE	Appliances	6	0	10	[0, 0, 0]	n/a	0	1	0	n/a	n/a	0.0	0	0	0	catFR3	0	R1260D
1333.642	1.001	1381452	WORD_OFF	n/a	n/a	STOVE	n/a	6	0	10	[0, 0, 0]	n/a	0	1	0	n/a	n/a	0.0	0	0	0	catFR3	0	R1260D
1334.643	1.6	1382453	WORD	n/a	wordpools/wordpool.txt	FOOTBALL	Toys	7	0	10	[0, 0, 0]	n/a	0	1	0	n/a	n/a	0.0	0	0	0	catFR3	0	R1260D
1334.863	0.5	1382673	STIM_ON	n/a	n/a	FOOTBALL	n/a	7	0	10	[0, 0, 0]	n/a	1	1	500	LLTG22	LLTG23	1250.0	200	100	300	catFR3	0	R1260D
1335.363	0.881	1383173	STIM_OFF	n/a	n/a	n/a	n/a	7	0	10	[0, 0, 0]	n/a	0	1	500	LLTG22	LLTG23	1250.0	200	100	300	catFR3	0	R1260D
1336.244	0.834	1384054	WORD_OFF	n/a	n/a	FOOTBALL	n/a	7	0	10	[0, 0, 0]	n/a	0	1	0	n/a	n/a	0.0	0	0	0	catFR3	0	R1260D
1337.078	1.6	1384887	WORD	n/a	wordpools/wordpool.txt	BASKETBALL	Toys	8	0	10	[0, 0, 0]	n/a	0	1	0	n/a	n/a	0.0	0	0	0	catFR3	0	R1260D
1337.296	0.5	1385105	STIM_ON	n/a	n/a	BASKETBALL	n/a	8	0	10	[0, 0, 0]	n/a	1	1	500	LLTG22	LLTG23	1250.0	200	100	300	catFR3	0	R1260D
1337.796	0.897	1385605	STIM_OFF	n/a	n/a	n/a	n/a	8	0	10	[0, 0, 0]	n/a	0	1	500	LLTG22	LLTG23	1250.0	200	100	300	catFR3	0	R1260D
1338.693	0.917	1386502	WORD_OFF	n/a	n/a	BASKETBALL	n/a	8	0	10	[0, 0, 0]	n/a	0	1	0	n/a	n/a	0.0	0	0	0	catFR3	0	R1260D
1339.61	1.6	1387419	WORD	n/a	wordpools/wordpool.txt	ISLAND	Landscapes	9	0	10	[0, 0, 0]	n/a	0	1	0	n/a	n/a	0.0	0	0	0	catFR3	0	R1260D
1339.83	0.5	1387639	STIM_ON	n/a	n/a	ISLAND	n/a	9	0	10	[0, 0, 0]	n/a	1	1	500	LLTG22	LLTG23	1250.0	200	100	300	catFR3	0	R1260D
1340.33	0.881	1388139	STIM_OFF	n/a	n/a	n/a	n/a	9	0	10	[0, 0, 0]	n/a	0	1	500	LLTG22	LLTG23	1250.0	200	100	300	catFR3	0	R1260D
1341.211	0.834	1389020	WORD_OFF	n/a	n/a	ISLAND	n/a	9	0	10	[0, 0, 0]	n/a	0	1	0	n/a	n/a	0.0	0	0	0	catFR3	0	R1260D
1342.045	1.6	1389854	WORD	n/a	wordpools/wordpool.txt	HILLS	Landscapes	10	0	10	[0, 0, 0]	n/a	0	1	0	n/a	n/a	0.0	0	0	0	catFR3	0	R1260D
1342.267	0.5	1390076	STIM_ON	n/a	n/a	HILLS	n/a	10	0	10	[0, 0, 0]	n/a	1	1	500	LLTG22	LLTG23	1250.0	200	100	300	catFR3	0	R1260D
1342.767	0.894	1390576	STIM_OFF	n/a	n/a	n/a	n/a	10	0	10	[0, 0, 0]	n/a	0	1	500	LLTG22	LLTG23	1250.0	200	100	300	catFR3	0	R1260D
1343.661	0.801	1391470	WORD_OFF	n/a	n/a	HILLS	n/a	10	0	10	[0, 0, 0]	n/a	0	1	0	n/a	n/a	0.0	0	0	0	catFR3	0	R1260D
1344.462	1.6	1392271	WORD	n/a	wordpools/wordpool.txt	OVEN	Appliances	11	0	10	[0, 0, 0]	n/a	0	1	0	n/a	n/a	0.0	0	0	0	catFR3	0	R1260D
1344.682	0.5	1392491	STIM_ON	n/a	n/a	OVEN	n/a	11	0	10	[0, 0, 0]	n/a	1	1	500	LLTG22	LLTG23	1250.0	200	100	300	catFR3	0	R1260D
1345.182	0.897	1392991	STIM_OFF	n/a	n/a	n/a	n/a	11	0	10	[0, 0, 0]	n/a	0	1	500	LLTG22	LLTG23	1250.0	200	100	300	catFR3	0	R1260D
1346.079	1.0	1393888	WORD_OFF	n/a	n/a	OVEN	n/a	11	0	10	[0, 0, 0]	n/a	0	1	0	n/a	n/a	0.0	0	0	0	catFR3	0	R1260D
1347.079	1.6	1394888	WORD	n/a	wordpools/wordpool.txt	REFRIGERATOR	Appliances	12	0	10	[0, 0, 0]	n/a	0	1	0	n/a	n/a	0.0	0	0	0	catFR3	0	R1260D
1347.299	0.5	1395108	STIM_ON	n/a	n/a	n/a	n/a	11	0	10	[0, 0, 0]	n/a	1	1	500	LLTG22	LLTG23	1250.0	200	100	300	catFR3	0	R1260D
1347.8	0.895	1395609	STIM_OFF	n/a	n/a	n/a	n/a	11	0	10	[0, 0, 0]	n/a	0	1	500	LLTG22	LLTG23	1250.0	200	100	300	catFR3	0	R1260D
1348.695	0.0	1396504	ENCODING_END	n/a	n/a	n/a	n/a	-999	0	10	[0, 0, 0]	n/a	0	1	0	n/a	n/a	0.0	0	0	0	catFR3	0	R1260D
1348.695	0.057	1396504	WORD_OFF	n/a	n/a	REFRIGERATOR	n/a	12	0	10	[0, 0, 0]	n/a	0	1	0	n/a	n/a	0.0	0	0	0	catFR3	0	R1260D
1348.752	0.0	1396561	DISTRACT_START	n/a	n/a	n/a	n/a	-999	0	10	[0, 0, 0]	n/a	0	1	0	n/a	n/a	0.0	0	0	0	catFR3	0	R1260D
1348.752	0.01	1396561	START	n/a	n/a	n/a	n/a	-999	0	10	[-999, -999, -999]	n/a	0	1	0	n/a	n/a	0.0	0	0	0	catFR3	0	R1260D
1348.762	5.101	1396571	PROB	5.066	n/a	n/a	n/a	-999	0	10	[4, 6, 2]	12	0	1	0	n/a	n/a	0.0	0	0	0	catFR3	0	R1260D
1353.863	4.951	1401672	PROB	4.926	n/a	n/a	n/a	-999	0	10	[8, 4, 7]	19	0	1	0	n/a	n/a	0.0	0	0	0	catFR3	0	R1260D
1358.814	9.503	1406622	PROB	9.479	n/a	n/a	n/a	-999	0	10	[4, 9, 8]	21	0	1	0	n/a	n/a	0.0	0	0	0	catFR3	0	R1260D
1368.317	5.536	1416125	PROB	5.536	n/a	n/a	n/a	-999	0	10	[7, 3, 5]	15	0	1	0	n/a	n/a	0.0	0	0	0	catFR3	0	R1260D
1373.853	0.014	1421660	STOP	n/a	n/a	n/a	n/a	-999	0	10	[-999, -999, -999]	n/a	0	1	0	n/a	n/a	0.0	0	0	0	catFR3	0	R1260D
1373.867	0.683	1421674	DISTRACT_END	n/a	n/a	n/a	n/a	-999	0	10	[0, 0, 0]	n/a	0	1	0	n/a	n/a	0.0	0	0	0	catFR3	0	R1260D
1374.55	0.5	1422357	RETRIEVAL_ORIENT	n/a	n/a	n/a	n/a	-999	0	10	[0, 0, 0]	n/a	0	1	0	n/a	n/a	0.0	0	0	0	catFR3	0	R1260D
1375.068	2.093	1422875	REC_START	n/a	n/a	n/a	n/a	-999	0	10	[0, 0, 0]	n/a	0	1	0	n/a	n/a	0.0	0	0	0	catFR3	0	R1260D
1377.161	2.383	1424968	REC_WORD_VV	2.093	n/a	<>	n/a	-999	0	10	[0, 0, 0]	n/a	0	1	0	n/a	n/a	0.0	0	0	0	catFR3	0	R1260D
1379.544	4.333	1427351	REC_WORD_VV	4.476	n/a	<>	n/a	-999	0	10	[0, 0, 0]	n/a	0	1	0	n/a	n/a	0.0	0	0	0	catFR3	0	R1260D
1383.877	0.741	1431684	REC_WORD_VV	8.809	n/a	<>	n/a	-999	0	10	[0, 0, 0]	n/a	0	1	0	n/a	n/a	0.0	0	0	0	catFR3	0	R1260D
1384.618	2.474	1432425	REC_WORD	9.55	n/a	HOUSE	n/a	-999	0	10	[0, 0, 0]	n/a	0	1	0	n/a	n/a	0.0	0	0	0	catFR3	0	R1260D
1387.092	5.041	1434899	REC_WORD_VV	12.024	n/a	<>	n/a	-999	0	10	[0, 0, 0]	n/a	0	1	0	n/a	n/a	0.0	0	0	0	catFR3	0	R1260D
1392.133	4.841	1439939	REC_WORD_VV	17.065	n/a	<>	n/a	-999	0	10	[0, 0, 0]	n/a	0	1	0	n/a	n/a	0.0	0	0	0	catFR3	0	R1260D
1396.974	8.106	1444780	REC_WORD_VV	21.906	n/a	<>	n/a	-999	0	10	[0, 0, 0]	n/a	0	1	0	n/a	n/a	0.0	0	0	0	catFR3	0	R1260D
1405.08	36.4	1452886	REC_END	n/a	n/a	n/a	n/a	-999	0	10	[0, 0, 0]	n/a	0	1	0	n/a	n/a	0.0	0	0	0	catFR3	0	R1260D
1441.48	0.5	1489284	TRIAL	n/a	n/a	n/a	n/a	-999	0	11	[0, 0, 0]	n/a	0	0	0	n/a	n/a	0.0	0	0	0	catFR3	0	R1260D
1441.98	10.0	1489784	COUNTDOWN_START	n/a	n/a	n/a	n/a	-999	0	11	[0, 0, 0]	n/a	0	0	0	n/a	n/a	0.0	0	0	0	catFR3	0	R1260D
1452.408	0.007	1500211	COUNTDOWN_END	n/a	n/a	n/a	n/a	-999	0	11	[0, 0, 0]	n/a	0	0	0	n/a	n/a	0.0	0	0	0	catFR3	0	R1260D
1452.415	1.6	1500218	ORIENT	n/a	n/a	n/a	n/a	-999	0	11	[0, 0, 0]	n/a	0	0	0	n/a	n/a	0.0	0	0	0	catFR3	0	R1260D
1454.032	2.017	1501835	ORIENT_OFF	n/a	n/a	n/a	n/a	-999	0	11	[0, 0, 0]	n/a	0	0	0	n/a	n/a	0.0	0	0	0	catFR3	0	R1260D
1456.049	1.6	1503852	WORD	n/a	wordpools/wordpool.txt	DRILL	Tools	1	0	11	[0, 0, 0]	n/a	0	0	0	n/a	n/a	0.0	0	0	0	catFR3	0	R1260D
1457.665	0.835	1505468	WORD_OFF	n/a	n/a	DRILL	n/a	1	0	11	[0, 0, 0]	n/a	0	0	0	n/a	n/a	0.0	0	0	0	catFR3	0	R1260D
1458.5	1.6	1506303	WORD	n/a	wordpools/wordpool.txt	HAMMER	Tools	2	0	11	[0, 0, 0]	n/a	0	0	0	n/a	n/a	0.0	0	0	0	catFR3	0	R1260D
1460.117	0.916	1507920	WORD_OFF	n/a	n/a	HAMMER	n/a	2	0	11	[0, 0, 0]	n/a	0	0	0	n/a	n/a	0.0	0	0	0	catFR3	0	R1260D
1461.033	1.6	1508836	WORD	n/a	wordpools/wordpool.txt	CHAIR	Furniture	3	0	11	[0, 0, 0]	n/a	0	0	0	n/a	n/a	0.0	0	0	0	catFR3	0	R1260D
1462.649	1.001	1510452	WORD_OFF	n/a	n/a	CHAIR	n/a	3	0	11	[0, 0, 0]	n/a	0	0	0	n/a	n/a	0.0	0	0	0	catFR3	0	R1260D
1463.65	1.6	1511452	WORD	n/a	wordpools/wordpool.txt	CABINET	Furniture	4	0	11	[0, 0, 0]	n/a	0	0	0	n/a	n/a	0.0	0	0	0	catFR3	0	R1260D
1465.267	0.901	1513069	WORD_OFF	n/a	n/a	CABINET	n/a	4	0	11	[0, 0, 0]	n/a	0	0	0	n/a	n/a	0.0	0	0	0	catFR3	0	R1260D
1466.168	1.6	1513970	WORD	n/a	wordpools/wordpool.txt	DOLL	Toys	5	0	11	[0, 0, 0]	n/a	0	0	0	n/a	n/a	0.0	0	0	0	catFR3	0	R1260D
1467.784	0.817	1515586	WORD_OFF	n/a	n/a	DOLL	n/a	5	0	11	[0, 0, 0]	n/a	0	0	0	n/a	n/a	0.0	0	0	0	catFR3	0	R1260D
1468.601	1.6	1516403	WORD	n/a	wordpools/wordpool.txt	BARBIE	Toys	6	0	11	[0, 0, 0]	n/a	0	0	0	n/a	n/a	0.0	0	0	0	catFR3	0	R1260D
1470.218	0.801	1518020	WORD_OFF	n/a	n/a	BARBIE	n/a	6	0	11	[0, 0, 0]	n/a	0	0	0	n/a	n/a	0.0	0	0	0	catFR3	0	R1260D
1471.019	1.6	1518821	WORD	n/a	wordpools/wordpool.txt	SHELF	Furniture	7	0	11	[0, 0, 0]	n/a	0	0	0	n/a	n/a	0.0	0	0	0	catFR3	0	R1260D
1472.634	0.934	1520436	WORD_OFF	n/a	n/a	SHELF	n/a	7	0	11	[0, 0, 0]	n/a	0	0	0	n/a	n/a	0.0	0	0	0	catFR3	0	R1260D
1473.568	1.6	1521370	WORD	n/a	wordpools/wordpool.txt	DESK	Furniture	8	0	11	[0, 0, 0]	n/a	0	0	0	n/a	n/a	0.0	0	0	0	catFR3	0	R1260D
1475.186	0.834	1522988	WORD_OFF	n/a	n/a	DESK	n/a	8	0	11	[0, 0, 0]	n/a	0	0	0	n/a	n/a	0.0	0	0	0	catFR3	0	R1260D
1476.02	1.6	1523822	WORD	n/a	wordpools/wordpool.txt	PLIERS	Tools	9	0	11	[0, 0, 0]	n/a	0	0	0	n/a	n/a	0.0	0	0	0	catFR3	0	R1260D
1477.635	0.868	1525437	WORD_OFF	n/a	n/a	PLIERS	n/a	9	0	11	[0, 0, 0]	n/a	0	0	0	n/a	n/a	0.0	0	0	0	catFR3	0	R1260D
1478.503	1.6	1526305	WORD	n/a	wordpools/wordpool.txt	WRENCH	Tools	10	0	11	[0, 0, 0]	n/a	0	0	0	n/a	n/a	0.0	0	0	0	catFR3	0	R1260D
1480.12	1.017	1527922	WORD_OFF	n/a	n/a	WRENCH	n/a	10	0	11	[0, 0, 0]	n/a	0	0	0	n/a	n/a	0.0	0	0	0	catFR3	0	R1260D
1481.137	1.6	1528938	WORD	n/a	wordpools/wordpool.txt	BASEBALL	Toys	11	0	11	[0, 0, 0]	n/a	0	0	0	n/a	n/a	0.0	0	0	0	catFR3	0	R1260D
1482.753	0.867	1530554	WORD_OFF	n/a	n/a	BASEBALL	n/a	11	0	11	[0, 0, 0]	n/a	0	0	0	n/a	n/a	0.0	0	0	0	catFR3	0	R1260D
1483.62	1.6	1531421	WORD	n/a	wordpools/wordpool.txt	FRISBEE	Toys	12	0	11	[0, 0, 0]	n/a	0	0	0	n/a	n/a	0.0	0	0	0	catFR3	0	R1260D
1485.221	0.0	1533022	ENCODING_END	n/a	n/a	n/a	n/a	-999	0	11	[0, 0, 0]	n/a	0	0	0	n/a	n/a	0.0	0	0	0	catFR3	0	R1260D
1485.221	0.061	1533022	WORD_OFF	n/a	n/a	FRISBEE	n/a	12	0	11	[0, 0, 0]	n/a	0	0	0	n/a	n/a	0.0	0	0	0	catFR3	0	R1260D
1485.282	0.0	1533083	DISTRACT_START	n/a	n/a	n/a	n/a	-999	0	11	[0, 0, 0]	n/a	0	0	0	n/a	n/a	0.0	0	0	0	catFR3	0	R1260D
1485.282	0.022	1533083	START	n/a	n/a	n/a	n/a	-999	0	11	[-999, -999, -999]	n/a	0	0	0	n/a	n/a	0.0	0	0	0	catFR3	0	R1260D
1485.304	5.035	1533105	PROB	5.012	n/a	n/a	n/a	-999	0	11	[3, 1, 2]	6	0	0	0	n/a	n/a	0.0	0	0	0	catFR3	0	R1260D
1490.339	3.934	1538140	PROB	3.899	n/a	n/a	n/a	-999	0	11	[4, 5, 1]	10	0	0	0	n/a	n/a	0.0	0	0	0	catFR3	0	R1260D
1494.273	7.367	1542074	PROB	7.332	n/a	n/a	n/a	-999	0	11	[9, 2, 3]	14	0	0	0	n/a	n/a	0.0	0	0	0	catFR3	0	R1260D
1501.64	7.556	1549440	PROB	7.556	n/a	n/a	n/a	-999	0	11	[8, 1, 3]	12	0	0	0	n/a	n/a	0.0	0	0	0	catFR3	0	R1260D
1509.196	0.013	1556996	STOP	n/a	n/a	n/a	n/a	-999	0	11	[-999, -999, -999]	n/a	0	0	0	n/a	n/a	0.0	0	0	0	catFR3	0	R1260D
1509.209	0.683	1557009	DISTRACT_END	n/a	n/a	n/a	n/a	-999	0	11	[0, 0, 0]	n/a	0	0	0	n/a	n/a	0.0	0	0	0	catFR3	0	R1260D
1509.892	0.5	1557692	RETRIEVAL_ORIENT	n/a	n/a	n/a	n/a	-999	0	11	[0, 0, 0]	n/a	0	0	0	n/a	n/a	0.0	0	0	0	catFR3	0	R1260D
1510.41	2.004	1558210	REC_START	n/a	n/a	n/a	n/a	-999	0	11	[0, 0, 0]	n/a	0	0	0	n/a	n/a	0.0	0	0	0	catFR3	0	R1260D
1512.414	1.268	1560214	REC_WORD_VV	2.004	n/a	<>	n/a	-999	0	11	[0, 0, 0]	n/a	0	0	0	n/a	n/a	0.0	0	0	0	catFR3	0	R1260D
1513.682	2.346	1561482	REC_WORD_VV	3.272	n/a	<>	n/a	-999	0	11	[0, 0, 0]	n/a	0	0	0	n/a	n/a	0.0	0	0	0	catFR3	0	R1260D
1516.028	2.7	1563828	REC_WORD_VV	5.618	n/a	<>	n/a	-999	0	11	[0, 0, 0]	n/a	0	0	0	n/a	n/a	0.0	0	0	0	catFR3	0	R1260D
1518.728	21.694	1566527	REC_WORD_VV	8.318	n/a	<>	n/a	-999	0	11	[0, 0, 0]	n/a	0	0	0	n/a	n/a	0.0	0	0	0	catFR3	0	R1260D
1540.422	9.277	1588220	REC_END	n/a	n/a	n/a	n/a	-999	0	11	[0, 0, 0]	n/a	0	0	0	n/a	n/a	0.0	0	0	0	catFR3	0	R1260D
1549.699	0.5	1597497	TRIAL	n/a	n/a	n/a	n/a	-999	0	12	[0, 0, 0]	n/a	0	0	0	n/a	n/a	0.0	0	0	0	catFR3	0	R1260D
1550.199	10.0	1597997	COUNTDOWN_START	n/a	n/a	n/a	n/a	-999	0	12	[0, 0, 0]	n/a	0	0	0	n/a	n/a	0.0	0	0	0	catFR3	0	R1260D
1560.627	0.007	1608424	COUNTDOWN_END	n/a	n/a	n/a	n/a	-999	0	12	[0, 0, 0]	n/a	0	0	0	n/a	n/a	0.0	0	0	0	catFR3	0	R1260D
1560.634	1.6	1608431	ORIENT	n/a	n/a	n/a	n/a	-999	0	12	[0, 0, 0]	n/a	0	0	0	n/a	n/a	0.0	0	0	0	catFR3	0	R1260D
1562.252	2.217	1610049	ORIENT_OFF	n/a	n/a	n/a	n/a	-999	0	12	[0, 0, 0]	n/a	0	0	0	n/a	n/a	0.0	0	0	0	catFR3	0	R1260D
1564.469	1.6	1612266	WORD	n/a	wordpools/wordpool.txt	ATTIC	Building	1	0	12	[0, 0, 0]	n/a	0	0	0	n/a	n/a	0.0	0	0	0	catFR3	0	R1260D
1566.086	0.983	1613883	WORD_OFF	n/a	n/a	ATTIC	n/a	1	0	12	[0, 0, 0]	n/a	0	0	0	n/a	n/a	0.0	0	0	0	catFR3	0	R1260D
1567.069	1.6	1614866	WORD	n/a	wordpools/wordpool.txt	BATHROOM	Building	2	0	12	[0, 0, 0]	n/a	0	0	0	n/a	n/a	0.0	0	0	0	catFR3	0	R1260D
1568.685	0.768	1616482	WORD_OFF	n/a	n/a	BATHROOM	n/a	2	0	12	[0, 0, 0]	n/a	0	0	0	n/a	n/a	0.0	0	0	0	catFR3	0	R1260D
1569.453	1.6	1617250	WORD	n/a	wordpools/wordpool.txt	GORILLA	Zoo	3	0	12	[0, 0, 0]	n/a	0	0	0	n/a	n/a	0.0	0	0	0	catFR3	0	R1260D
1571.07	1.0	1618867	WORD_OFF	n/a	n/a	GORILLA	n/a	3	0	12	[0, 0, 0]	n/a	0	0	0	n/a	n/a	0.0	0	0	0	catFR3	0	R1260D
1572.07	1.6	1619866	WORD	n/a	wordpools/wordpool.txt	ELEPHANT	Zoo	4	0	12	[0, 0, 0]	n/a	0	0	0	n/a	n/a	0.0	0	0	0	catFR3	0	R1260D
1573.686	1.0	1621482	WORD_OFF	n/a	n/a	ELEPHANT	n/a	4	0	12	[0, 0, 0]	n/a	0	0	0	n/a	n/a	0.0	0	0	0	catFR3	0	R1260D
1574.686	1.6	1622482	WORD	n/a	wordpools/wordpool.txt	SOCKS	Clothing	5	0	12	[0, 0, 0]	n/a	0	0	0	n/a	n/a	0.0	0	0	0	catFR3	0	R1260D
1576.304	0.867	1624100	WORD_OFF	n/a	n/a	SOCKS	n/a	5	0	12	[0, 0, 0]	n/a	0	0	0	n/a	n/a	0.0	0	0	0	catFR3	0	R1260D
1577.171	1.6	1624967	WORD	n/a	wordpools/wordpool.txt	PANTS	Clothing	6	0	12	[0, 0, 0]	n/a	0	0	0	n/a	n/a	0.0	0	0	0	catFR3	0	R1260D
1578.787	0.767	1626583	WORD_OFF	n/a	n/a	PANTS	n/a	6	0	12	[0, 0, 0]	n/a	0	0	0	n/a	n/a	0.0	0	0	0	catFR3	0	R1260D
1579.554	1.6	1627350	WORD	n/a	wordpools/wordpool.txt	CEILING	Building	7	0	12	[0, 0, 0]	n/a	0	0	0	n/a	n/a	0.0	0	0	0	catFR3	0	R1260D
1581.172	0.933	1628968	WORD_OFF	n/a	n/a	CEILING	n/a	7	0	12	[0, 0, 0]	n/a	0	0	0	n/a	n/a	0.0	0	0	0	catFR3	0	R1260D
1582.105	1.6	1629901	WORD	n/a	wordpools/wordpool.txt	WALL	Building	8	0	12	[0, 0, 0]	n/a	0	0	0	n/a	n/a	0.0	0	0	0	catFR3	0	R1260D
1583.721	1.001	1631517	WORD_OFF	n/a	n/a	WALL	n/a	8	0	12	[0, 0, 0]	n/a	0	0	0	n/a	n/a	0.0	0	0	0	catFR3	0	R1260D
1584.722	1.6	1632518	WORD	n/a	wordpools/wordpool.txt	GIRAFFE	Zoo	9	0	12	[0, 0, 0]	n/a	0	0	0	n/a	n/a	0.0	0	0	0	catFR3	0	R1260D
1586.34	0.85	1634136	WORD_OFF	n/a	n/a	GIRAFFE	n/a	9	0	12	[0, 0, 0]	n/a	0	0	0	n/a	n/a	0.0	0	0	0	catFR3	0	R1260D
1587.19	1.6	1634986	WORD	n/a	wordpools/wordpool.txt	BEAR	Zoo	10	0	12	[0, 0, 0]	n/a	0	0	0	n/a	n/a	0.0	0	0	0	catFR3	0	R1260D
1588.806	0.767	1636602	WORD_OFF	n/a	n/a	BEAR	n/a	10	0	12	[0, 0, 0]	n/a	0	0	0	n/a	n/a	0.0	0	0	0	catFR3	0	R1260D
1589.573	1.6	1637368	WORD	n/a	wordpools/wordpool.txt	DRESS	Clothing	11	0	12	[0, 0, 0]	n/a	0	0	0	n/a	n/a	0.0	0	0	0	catFR3	0	R1260D
1591.191	0.966	1638986	WORD_OFF	n/a	n/a	DRESS	n/a	11	0	12	[0, 0, 0]	n/a	0	0	0	n/a	n/a	0.0	0	0	0	catFR3	0	R1260D
1592.157	1.6	1639952	WORD	n/a	wordpools/wordpool.txt	UNDERWEAR	Clothing	12	0	12	[0, 0, 0]	n/a	0	0	0	n/a	n/a	0.0	0	0	0	catFR3	0	R1260D
1593.773	0.0	1641568	ENCODING_END	n/a	n/a	n/a	n/a	-999	0	12	[0, 0, 0]	n/a	0	0	0	n/a	n/a	0.0	0	0	0	catFR3	0	R1260D
1593.773	0.059	1641568	WORD_OFF	n/a	n/a	UNDERWEAR	n/a	12	0	12	[0, 0, 0]	n/a	0	0	0	n/a	n/a	0.0	0	0	0	catFR3	0	R1260D
1593.832	0.0	1641627	DISTRACT_START	n/a	n/a	n/a	n/a	-999	0	12	[0, 0, 0]	n/a	0	0	0	n/a	n/a	0.0	0	0	0	catFR3	0	R1260D
1593.832	0.008	1641627	START	n/a	n/a	n/a	n/a	-999	0	12	[-999, -999, -999]	n/a	0	0	0	n/a	n/a	0.0	0	0	0	catFR3	0	R1260D
1593.84	5.285	1641635	PROB	5.261	n/a	n/a	n/a	-999	0	12	[2, 3, 3]	8	0	0	0	n/a	n/a	0.0	0	0	0	catFR3	0	R1260D
1599.125	5.65	1646920	PROB	5.624	n/a	n/a	n/a	-999	0	12	[5, 4, 7]	16	0	0	0	n/a	n/a	0.0	0	0	0	catFR3	0	R1260D
1604.775	5.286	1652570	PROB	5.255	n/a	n/a	n/a	-999	0	12	[6, 1, 5]	12	0	0	0	n/a	n/a	0.0	0	0	0	catFR3	0	R1260D
1610.061	8.479	1657855	PROB	8.479	n/a	n/a	n/a	-999	0	12	[1, 6, 9]	16	0	0	0	n/a	n/a	0.0	0	0	0	catFR3	0	R1260D
1618.54	0.021	1666334	STOP	n/a	n/a	n/a	n/a	-999	0	12	[-999, -999, -999]	n/a	0	0	0	n/a	n/a	0.0	0	0	0	catFR3	0	R1260D
1618.561	0.551	1666355	DISTRACT_END	n/a	n/a	n/a	n/a	-999	0	12	[0, 0, 0]	n/a	0	0	0	n/a	n/a	0.0	0	0	0	catFR3	0	R1260D
1619.112	0.5	1666906	RETRIEVAL_ORIENT	n/a	n/a	n/a	n/a	-999	0	12	[0, 0, 0]	n/a	0	0	0	n/a	n/a	0.0	0	0	0	catFR3	0	R1260D
1619.629	30.0	1667423	REC_START	n/a	n/a	n/a	n/a	-999	0	12	[0, 0, 0]	n/a	0	0	0	n/a	n/a	0.0	0	0	0	catFR3	0	R1260D
1649.629	0.011	1697421	REC_WORD_VV	30.0	n/a	<>	n/a	-999	0	12	[0, 0, 0]	n/a	0	0	0	n/a	n/a	0.0	0	0	0	catFR3	0	R1260D
1649.64	49.637	1697432	REC_END	n/a	n/a	n/a	n/a	-999	0	12	[0, 0, 0]	n/a	0	0	0	n/a	n/a	0.0	0	0	0	catFR3	0	R1260D
1699.277	0.5	1747066	TRIAL	n/a	n/a	n/a	n/a	-999	0	13	[0, 0, 0]	n/a	0	0	0	n/a	n/a	0.0	0	0	0	catFR3	0	R1260D
1699.777	10.0	1747566	COUNTDOWN_START	n/a	n/a	n/a	n/a	-999	0	13	[0, 0, 0]	n/a	0	0	0	n/a	n/a	0.0	0	0	0	catFR3	0	R1260D
1710.205	0.007	1757994	COUNTDOWN_END	n/a	n/a	n/a	n/a	-999	0	13	[0, 0, 0]	n/a	0	0	0	n/a	n/a	0.0	0	0	0	catFR3	0	R1260D
1710.212	1.6	1758001	ORIENT	n/a	n/a	n/a	n/a	-999	0	13	[0, 0, 0]	n/a	0	0	0	n/a	n/a	0.0	0	0	0	catFR3	0	R1260D
1711.828	2.218	1759617	ORIENT_OFF	n/a	n/a	n/a	n/a	-999	0	13	[0, 0, 0]	n/a	0	0	0	n/a	n/a	0.0	0	0	0	catFR3	0	R1260D
1714.046	1.6	1761835	WORD	n/a	wordpools/wordpool.txt	PEELER	KitchenTools	1	0	13	[0, 0, 0]	n/a	0	0	0	n/a	n/a	0.0	0	0	0	catFR3	0	R1260D
1715.662	0.95	1763450	WORD_OFF	n/a	n/a	PEELER	n/a	1	0	13	[0, 0, 0]	n/a	0	0	0	n/a	n/a	0.0	0	0	0	catFR3	0	R1260D
1716.612	1.6	1764400	WORD	n/a	wordpools/wordpool.txt	COLANDER	KitchenTools	2	0	13	[0, 0, 0]	n/a	0	0	0	n/a	n/a	0.0	0	0	0	catFR3	0	R1260D
1718.213	1.001	1766001	WORD_OFF	n/a	n/a	COLANDER	n/a	2	0	13	[0, 0, 0]	n/a	0	0	0	n/a	n/a	0.0	0	0	0	catFR3	0	R1260D
1719.214	1.6	1767002	WORD	n/a	wordpools/wordpool.txt	CEDAR	Trees	3	0	13	[0, 0, 0]	n/a	0	0	0	n/a	n/a	0.0	0	0	0	catFR3	0	R1260D
1720.83	0.783	1768618	WORD_OFF	n/a	n/a	CEDAR	n/a	3	0	13	[0, 0, 0]	n/a	0	0	0	n/a	n/a	0.0	0	0	0	catFR3	0	R1260D
1721.613	1.6	1769401	WORD	n/a	wordpools/wordpool.txt	BIRCH	Trees	4	0	13	[0, 0, 0]	n/a	0	0	0	n/a	n/a	0.0	0	0	0	catFR3	0	R1260D
1723.231	0.884	1771019	WORD_OFF	n/a	n/a	BIRCH	n/a	4	0	13	[0, 0, 0]	n/a	0	0	0	n/a	n/a	0.0	0	0	0	catFR3	0	R1260D
1724.115	1.6	1771903	WORD	n/a	wordpools/wordpool.txt	COW	FarmAnimals	5	0	13	[0, 0, 0]	n/a	0	0	0	n/a	n/a	0.0	0	0	0	catFR3	0	R1260D
1725.731	0.85	1773519	WORD_OFF	n/a	n/a	COW	n/a	5	0	13	[0, 0, 0]	n/a	0	0	0	n/a	n/a	0.0	0	0	0	catFR3	0	R1260D
1726.581	1.6	1774369	WORD	n/a	wordpools/wordpool.txt	HORSE	FarmAnimals	6	0	13	[0, 0, 0]	n/a	0	0	0	n/a	n/a	0.0	0	0	0	catFR3	0	R1260D
1728.199	0.983	1775987	WORD_OFF	n/a	n/a	HORSE	n/a	6	0	13	[0, 0, 0]	n/a	0	0	0	n/a	n/a	0.0	0	0	0	catFR3	0	R1260D
1729.182	1.6	1776970	WORD	n/a	wordpools/wordpool.txt	SPOON	KitchenTools	7	0	13	[0, 0, 0]	n/a	0	0	0	n/a	n/a	0.0	0	0	0	catFR3	0	R1260D
1730.798	0.784	1778586	WORD_OFF	n/a	n/a	SPOON	n/a	7	0	13	[0, 0, 0]	n/a	0	0	0	n/a	n/a	0.0	0	0	0	catFR3	0	R1260D
1731.582	1.6	1779370	WORD	n/a	wordpools/wordpool.txt	WHISK	KitchenTools	8	0	13	[0, 0, 0]	n/a	0	0	0	n/a	n/a	0.0	0	0	0	catFR3	0	R1260D
1733.2	0.783	1780988	WORD_OFF	n/a	n/a	WHISK	n/a	8	0	13	[0, 0, 0]	n/a	0	0	0	n/a	n/a	0.0	0	0	0	catFR3	0	R1260D
1733.983	1.6	1781770	WORD	n/a	wordpools/wordpool.txt	SPRUCE	Trees	9	0	13	[0, 0, 0]	n/a	0	0	0	n/a	n/a	0.0	0	0	0	catFR3	0	R1260D
1735.599	0.935	1783386	WORD_OFF	n/a	n/a	SPRUCE	n/a	9	0	13	[0, 0, 0]	n/a	0	0	0	n/a	n/a	0.0	0	0	0	catFR3	0	R1260D
1736.534	1.6	1784321	WORD	n/a	wordpools/wordpool.txt	PINE	Trees	10	0	13	[0, 0, 0]	n/a	0	0	0	n/a	n/a	0.0	0	0	0	catFR3	0	R1260D
1738.151	0.883	1785938	WORD_OFF	n/a	n/a	PINE	n/a	10	0	13	[0, 0, 0]	n/a	0	0	0	n/a	n/a	0.0	0	0	0	catFR3	0	R1260D
1739.034	1.6	1786821	WORD	n/a	wordpools/wordpool.txt	SHEEP	FarmAnimals	11	0	13	[0, 0, 0]	n/a	0	0	0	n/a	n/a	0.0	0	0	0	catFR3	0	R1260D
1740.65	0.884	1788437	WORD_OFF	n/a	n/a	SHEEP	n/a	11	0	13	[0, 0, 0]	n/a	0	0	0	n/a	n/a	0.0	0	0	0	catFR3	0	R1260D
1741.534	1.6	1789321	WORD	n/a	wordpools/wordpool.txt	BULL	FarmAnimals	12	0	13	[0, 0, 0]	n/a	0	0	0	n/a	n/a	0.0	0	0	0	catFR3	0	R1260D
1743.152	0.0	1790939	ENCODING_END	n/a	n/a	n/a	n/a	-999	0	13	[0, 0, 0]	n/a	0	0	0	n/a	n/a	0.0	0	0	0	catFR3	0	R1260D
1743.152	0.057	1790939	WORD_OFF	n/a	n/a	BULL	n/a	12	0	13	[0, 0, 0]	n/a	0	0	0	n/a	n/a	0.0	0	0	0	catFR3	0	R1260D
1743.209	0.0	1790996	DISTRACT_START	n/a	n/a	n/a	n/a	-999	0	13	[0, 0, 0]	n/a	0	0	0	n/a	n/a	0.0	0	0	0	catFR3	0	R1260D
1743.209	0.009	1790996	START	n/a	n/a	n/a	n/a	-999	0	13	[-999, -999, -999]	n/a	0	0	0	n/a	n/a	0.0	0	0	0	catFR3	0	R1260D
1743.218	6.517	1791005	PROB	6.483	n/a	n/a	n/a	-999	0	13	[5, 3, 7]	15	0	0	0	n/a	n/a	0.0	0	0	0	catFR3	0	R1260D
1749.735	3.851	1797522	PROB	3.829	n/a	n/a	n/a	-999	0	13	[7, 3, 1]	11	0	0	0	n/a	n/a	0.0	0	0	0	catFR3	0	R1260D
1753.586	5.502	1801372	PROB	5.475	n/a	n/a	n/a	-999	0	13	[9, 3, 5]	17	0	0	0	n/a	n/a	0.0	0	0	0	catFR3	0	R1260D
1759.088	8.254	1806874	PROB	8.254	n/a	n/a	n/a	-999	0	13	[4, 8, 6]	18	0	0	0	n/a	n/a	0.0	0	0	0	catFR3	0	R1260D
1767.342	0.014	1815128	STOP	n/a	n/a	n/a	n/a	-999	0	13	[-999, -999, -999]	n/a	0	0	0	n/a	n/a	0.0	0	0	0	catFR3	0	R1260D
1767.356	0.683	1815142	DISTRACT_END	n/a	n/a	n/a	n/a	-999	0	13	[0, 0, 0]	n/a	0	0	0	n/a	n/a	0.0	0	0	0	catFR3	0	R1260D
1768.039	0.5	1815825	RETRIEVAL_ORIENT	n/a	n/a	n/a	n/a	-999	0	13	[0, 0, 0]	n/a	0	0	0	n/a	n/a	0.0	0	0	0	catFR3	0	R1260D
1768.556	1.084	1816342	REC_START	n/a	n/a	n/a	n/a	-999	0	13	[0, 0, 0]	n/a	0	0	0	n/a	n/a	0.0	0	0	0	catFR3	0	R1260D
1769.64	12.999	1817425	REC_WORD_VV	1.084	n/a	<>	n/a	-999	0	13	[0, 0, 0]	n/a	0	0	0	n/a	n/a	0.0	0	0	0	catFR3	0	R1260D
1782.639	6.671	1830424	REC_WORD_VV	14.083	n/a	<>	n/a	-999	0	13	[0, 0, 0]	n/a	0	0	0	n/a	n/a	0.0	0	0	0	catFR3	0	R1260D
1789.31	1.069	1837094	REC_WORD_VV	20.754	n/a	<>	n/a	-999	0	13	[0, 0, 0]	n/a	0	0	0	n/a	n/a	0.0	0	0	0	catFR3	0	R1260D
1790.379	1.551	1838163	REC_WORD	21.823	n/a	COUCH	n/a	-999	0	13	[0, 0, 0]	n/a	0	0	0	n/a	n/a	0.0	0	0	0	catFR3	0	R1260D
1791.93	1.836	1839714	REC_WORD_VV	23.374	n/a	<>	n/a	-999	0	13	[0, 0, 0]	n/a	0	0	0	n/a	n/a	0.0	0	0	0	catFR3	0	R1260D
1793.766	4.255	1841550	REC_WORD_VV	25.21	n/a	<>	n/a	-999	0	13	[0, 0, 0]	n/a	0	0	0	n/a	n/a	0.0	0	0	0	catFR3	0	R1260D
1798.021	0.545	1845805	REC_WORD	29.465	n/a	CHAIR	n/a	-999	0	13	[0, 0, 0]	n/a	0	0	0	n/a	n/a	0.0	0	0	0	catFR3	0	R1260D
1798.566	12.681	1846350	REC_END	n/a	n/a	n/a	n/a	-999	0	13	[0, 0, 0]	n/a	0	0	0	n/a	n/a	0.0	0	0	0	catFR3	0	R1260D
1811.247	0.5	1859030	TRIAL	n/a	n/a	n/a	n/a	-999	0	14	[0, 0, 0]	n/a	0	1	0	n/a	n/a	0.0	0	0	0	catFR3	0	R1260D
1811.747	10.0	1859530	COUNTDOWN_START	n/a	n/a	n/a	n/a	-999	0	14	[0, 0, 0]	n/a	0	1	0	n/a	n/a	0.0	0	0	0	catFR3	0	R1260D
1822.175	0.008	1869958	COUNTDOWN_END	n/a	n/a	n/a	n/a	-999	0	14	[0, 0, 0]	n/a	0	1	0	n/a	n/a	0.0	0	0	0	catFR3	0	R1260D
1822.183	1.6	1869966	ORIENT	n/a	n/a	n/a	n/a	-999	0	14	[0, 0, 0]	n/a	0	1	0	n/a	n/a	0.0	0	0	0	catFR3	0	R1260D
1823.799	2.033	1871581	ORIENT_OFF	n/a	n/a	n/a	n/a	-999	0	14	[0, 0, 0]	n/a	0	1	0	n/a	n/a	0.0	0	0	0	catFR3	0	R1260D
1825.832	1.6	1873614	WORD	n/a	wordpools/wordpool.txt	MARBLES	Toys	1	0	14	[0, 0, 0]	n/a	0	1	0	n/a	n/a	0.0	0	0	0	catFR3	0	R1260D
1826.074	0.5	1873856	STIM_ON	n/a	n/a	MARBLES	n/a	1	0	14	[0, 0, 0]	n/a	1	1	500	LLTG22	LLTG23	1250.0	200	100	300	catFR3	0	R1260D
1826.574	0.876	1874356	STIM_OFF	n/a	n/a	n/a	n/a	1	0	14	[0, 0, 0]	n/a	0	1	500	LLTG22	LLTG23	1250.0	200	100	300	catFR3	0	R1260D
1827.45	0.984	1875232	WORD_OFF	n/a	n/a	MARBLES	n/a	1	0	14	[0, 0, 0]	n/a	0	1	0	n/a	n/a	0.0	0	0	0	catFR3	0	R1260D
1828.434	1.6	1876216	WORD	n/a	wordpools/wordpool.txt	PUZZLE	Toys	2	1	14	[0, 0, 0]	n/a	0	1	0	n/a	n/a	0.0	0	0	0	catFR3	0	R1260D
1830.051	0.883	1877833	WORD_OFF	n/a	n/a	PUZZLE	n/a	2	0	14	[0, 0, 0]	n/a	0	1	0	n/a	n/a	0.0	0	0	0	catFR3	0	R1260D
1830.934	1.6	1878716	WORD	n/a	wordpools/wordpool.txt	PENCIL	OfficeSupplies	3	1	14	[0, 0, 0]	n/a	0	1	0	n/a	n/a	0.0	0	0	0	catFR3	0	R1260D
1832.55	0.935	1880332	WORD_OFF	n/a	n/a	PENCIL	n/a	3	0	14	[0, 0, 0]	n/a	0	1	0	n/a	n/a	0.0	0	0	0	catFR3	0	R1260D
1833.485	1.6	1881267	WORD	n/a	wordpools/wordpool.txt	ERASER	OfficeSupplies	4	0	14	[0, 0, 0]	n/a	0	1	0	n/a	n/a	0.0	0	0	0	catFR3	0	R1260D
1835.102	0.765	1882884	WORD_OFF	n/a	n/a	ERASER	n/a	4	0	14	[0, 0, 0]	n/a	0	1	0	n/a	n/a	0.0	0	0	0	catFR3	0	R1260D
1835.867	1.6	1883649	WORD	n/a	wordpools/wordpool.txt	CLOUD	Weather	5	0	14	[0, 0, 0]	n/a	0	1	0	n/a	n/a	0.0	0	0	0	catFR3	0	R1260D
1837.485	0.851	1885267	WORD_OFF	n/a	n/a	CLOUD	n/a	5	0	14	[0, 0, 0]	n/a	0	1	0	n/a	n/a	0.0	0	0	0	catFR3	0	R1260D
1838.336	1.6	1886118	WORD	n/a	wordpools/wordpool.txt	TORNADO	Weather	6	0	14	[0, 0, 0]	n/a	0	1	0	n/a	n/a	0.0	0	0	0	catFR3	0	R1260D
1838.58	0.5	1886362	STIM_ON	n/a	n/a	TORNADO	n/a	6	0	14	[0, 0, 0]	n/a	1	1	500	LLTG22	LLTG23	1250.0	200	100	300	catFR3	0	R1260D
1839.08	0.873	1886862	STIM_OFF	n/a	n/a	n/a	n/a	6	0	14	[0, 0, 0]	n/a	0	1	500	LLTG22	LLTG23	1250.0	200	100	300	catFR3	0	R1260D
1839.953	0.882	1887735	WORD_OFF	n/a	n/a	TORNADO	n/a	6	0	14	[0, 0, 0]	n/a	0	1	0	n/a	n/a	0.0	0	0	0	catFR3	0	R1260D
1840.835	1.6	1888617	WORD	n/a	wordpools/wordpool.txt	BLOCKS	Toys	7	0	14	[0, 0, 0]	n/a	0	1	0	n/a	n/a	0.0	0	0	0	catFR3	0	R1260D
1842.453	0.883	1890234	WORD_OFF	n/a	n/a	BLOCKS	n/a	7	0	14	[0, 0, 0]	n/a	0	1	0	n/a	n/a	0.0	0	0	0	catFR3	0	R1260D
1843.336	1.6	1891117	WORD	n/a	wordpools/wordpool.txt	BALL	Toys	8	0	14	[0, 0, 0]	n/a	0	1	0	n/a	n/a	0.0	0	0	0	catFR3	0	R1260D
1843.581	0.5	1891362	STIM_ON	n/a	n/a	BALL	n/a	8	0	14	[0, 0, 0]	n/a	1	1	500	LLTG22	LLTG23	1250.0	200	100	300	catFR3	0	R1260D
1844.081	0.872	1891862	STIM_OFF	n/a	n/a	n/a	n/a	8	0	14	[0, 0, 0]	n/a	0	1	500	LLTG22	LLTG23	1250.0	200	100	300	catFR3	0	R1260D
1844.953	0.833	1892734	WORD_OFF	n/a	n/a	BALL	n/a	8	0	14	[0, 0, 0]	n/a	0	1	0	n/a	n/a	0.0	0	0	0	catFR3	0	R1260D
1845.786	1.6	1893567	WORD	n/a	wordpools/wordpool.txt	TAPE	OfficeSupplies	9	0	14	[0, 0, 0]	n/a	0	1	0	n/a	n/a	0.0	0	0	0	catFR3	0	R1260D
1847.404	0.967	1895185	WORD_OFF	n/a	n/a	TAPE	n/a	9	0	14	[0, 0, 0]	n/a	0	1	0	n/a	n/a	0.0	0	0	0	catFR3	0	R1260D
1848.371	1.6	1896152	WORD	n/a	wordpools/wordpool.txt	STAPLER	OfficeSupplies	10	0	14	[0, 0, 0]	n/a	0	1	0	n/a	n/a	0.0	0	0	0	catFR3	0	R1260D
1848.615	0.5	1896396	STIM_ON	n/a	n/a	STAPLER	n/a	10	0	14	[0, 0, 0]	n/a	1	1	500	LLTG22	LLTG23	1250.0	200	100	300	catFR3	0	R1260D
1849.115	0.873	1896896	STIM_OFF	n/a	n/a	n/a	n/a	10	0	14	[0, 0, 0]	n/a	0	1	500	LLTG22	LLTG23	1250.0	200	100	300	catFR3	0	R1260D
1849.988	0.865	1897769	WORD_OFF	n/a	n/a	STAPLER	n/a	10	0	14	[0, 0, 0]	n/a	0	1	0	n/a	n/a	0.0	0	0	0	catFR3	0	R1260D
1850.853	1.6	1898634	WORD	n/a	wordpools/wordpool.txt	HURRICANE	Weather	11	0	14	[0, 0, 0]	n/a	0	1	0	n/a	n/a	0.0	0	0	0	catFR3	0	R1260D
1851.102	0.5	1898883	STIM_ON	n/a	n/a	HURRICANE	n/a	11	0	14	[0, 0, 0]	n/a	1	1	500	LLTG22	LLTG23	1250.0	200	100	300	catFR3	0	R1260D
1851.602	0.869	1899383	STIM_OFF	n/a	n/a	n/a	n/a	11	0	14	[0, 0, 0]	n/a	0	1	500	LLTG22	LLTG23	1250.0	200	100	300	catFR3	0	R1260D
1852.471	0.917	1900252	WORD_OFF	n/a	n/a	HURRICANE	n/a	11	0	14	[0, 0, 0]	n/a	0	1	0	n/a	n/a	0.0	0	0	0	catFR3	0	R1260D
1853.388	1.6	1901169	WORD	n/a	wordpools/wordpool.txt	DRIZZLE	Weather	12	0	14	[0, 0, 0]	n/a	0	1	0	n/a	n/a	0.0	0	0	0	catFR3	0	R1260D
1855.005	0.0	1902786	ENCODING_END	n/a	n/a	n/a	n/a	-999	0	14	[0, 0, 0]	n/a	0	1	0	n/a	n/a	0.0	0	0	0	catFR3	0	R1260D
1855.005	0.059	1902786	WORD_OFF	n/a	n/a	DRIZZLE	n/a	12	0	14	[0, 0, 0]	n/a	0	1	0	n/a	n/a	0.0	0	0	0	catFR3	0	R1260D
1855.064	0.0	1902845	DISTRACT_START	n/a	n/a	n/a	n/a	-999	0	14	[0, 0, 0]	n/a	0	1	0	n/a	n/a	0.0	0	0	0	catFR3	0	R1260D
1855.064	0.008	1902845	START	n/a	n/a	n/a	n/a	-999	0	14	[-999, -999, -999]	n/a	0	1	0	n/a	n/a	0.0	0	0	0	catFR3	0	R1260D
1855.072	6.534	1902853	PROB	6.499	n/a	n/a	n/a	-999	0	14	[1, 2, 3]	6	0	1	0	n/a	n/a	0.0	0	0	0	catFR3	0	R1260D
1861.606	4.768	1909386	PROB	4.734	n/a	n/a	n/a	-999	0	14	[5, 2, 5]	12	0	1	0	n/a	n/a	0.0	0	0	0	catFR3	0	R1260D
1866.374	5.768	1914154	PROB	5.744	n/a	n/a	n/a	-999	0	14	[9, 7, 3]	19	0	1	0	n/a	n/a	0.0	0	0	0	catFR3	0	R1260D
1872.142	5.734	1919922	PROB	5.734	n/a	n/a	n/a	-999	0	14	[2, 8, 6]	16	0	1	0	n/a	n/a	0.0	0	0	0	catFR3	0	R1260D
1877.876	0.017	1925655	STOP	n/a	n/a	n/a	n/a	-999	0	14	[-999, -999, -999]	n/a	0	1	0	n/a	n/a	0.0	0	0	0	catFR3	0	R1260D
1877.893	0.666	1925672	DISTRACT_END	n/a	n/a	n/a	n/a	-999	0	14	[0, 0, 0]	n/a	0	1	0	n/a	n/a	0.0	0	0	0	catFR3	0	R1260D
1878.559	0.5	1926338	RETRIEVAL_ORIENT	n/a	n/a	n/a	n/a	-999	0	14	[0, 0, 0]	n/a	0	1	0	n/a	n/a	0.0	0	0	0	catFR3	0	R1260D
1879.077	1.629	1926856	REC_START	n/a	n/a	n/a	n/a	-999	0	14	[0, 0, 0]	n/a	0	1	0	n/a	n/a	0.0	0	0	0	catFR3	0	R1260D
1880.706	1.12	1928485	REC_WORD_VV	1.629	n/a	<>	n/a	-999	0	14	[0, 0, 0]	n/a	0	1	0	n/a	n/a	0.0	0	0	0	catFR3	0	R1260D
1881.826	1.336	1929605	REC_WORD	2.749	n/a	PUZZLE	Toys	2	1	14	[0, 0, 0]	n/a	0	1	0	n/a	n/a	0.0	0	0	0	catFR3	0	R1260D
1883.162	2.935	1930941	REC_WORD	4.085	n/a	PENCIL	OfficeSupplies	3	1	14	[0, 0, 0]	n/a	0	1	0	n/a	n/a	0.0	0	0	0	catFR3	0	R1260D
1886.097	3.988	1933876	REC_WORD_VV	7.02	n/a	<>	n/a	-999	0	14	[0, 0, 0]	n/a	0	1	0	n/a	n/a	0.0	0	0	0	catFR3	0	R1260D
1890.085	7.506	1937864	REC_WORD_VV	11.008	n/a	<>	n/a	-999	0	14	[0, 0, 0]	n/a	0	1	0	n/a	n/a	0.0	0	0	0	catFR3	0	R1260D
1897.591	11.497	1945369	REC_WORD_VV	18.514	n/a	<>	n/a	-999	0	14	[0, 0, 0]	n/a	0	1	0	n/a	n/a	0.0	0	0	0	catFR3	0	R1260D
1909.088	7.929	1956866	REC_END	n/a	n/a	n/a	n/a	-999	0	14	[0, 0, 0]	n/a	0	1	0	n/a	n/a	0.0	0	0	0	catFR3	0	R1260D
1917.017	0.5	1964794	TRIAL	n/a	n/a	n/a	n/a	-999	0	15	[0, 0, 0]	n/a	0	1	0	n/a	n/a	0.0	0	0	0	catFR3	0	R1260D
1917.517	10.0	1965294	COUNTDOWN_START	n/a	n/a	n/a	n/a	-999	0	15	[0, 0, 0]	n/a	0	1	0	n/a	n/a	0.0	0	0	0	catFR3	0	R1260D
1927.945	0.007	1975722	COUNTDOWN_END	n/a	n/a	n/a	n/a	-999	0	15	[0, 0, 0]	n/a	0	1	0	n/a	n/a	0.0	0	0	0	catFR3	0	R1260D
1927.952	1.6	1975729	ORIENT	n/a	n/a	n/a	n/a	-999	0	15	[0, 0, 0]	n/a	0	1	0	n/a	n/a	0.0	0	0	0	catFR3	0	R1260D
1929.568	2.385	1977345	ORIENT_OFF	n/a	n/a	n/a	n/a	-999	0	15	[0, 0, 0]	n/a	0	1	0	n/a	n/a	0.0	0	0	0	catFR3	0	R1260D
1931.953	1.6	1979730	WORD	n/a	wordpools/wordpool.txt	TROMBONE	Instruments	1	0	15	[0, 0, 0]	n/a	0	1	0	n/a	n/a	0.0	0	0	0	catFR3	0	R1260D
1932.201	0.5	1979977	STIM_ON	n/a	n/a	TROMBONE	n/a	1	0	15	[0, 0, 0]	n/a	1	1	500	LLTG22	LLTG23	1250.0	200	100	300	catFR3	0	R1260D
1932.701	0.868	1980477	STIM_OFF	n/a	n/a	n/a	n/a	1	0	15	[0, 0, 0]	n/a	0	1	500	LLTG22	LLTG23	1250.0	200	100	300	catFR3	0	R1260D
1933.569	0.818	1981345	WORD_OFF	n/a	n/a	TROMBONE	n/a	1	0	15	[0, 0, 0]	n/a	0	1	0	n/a	n/a	0.0	0	0	0	catFR3	0	R1260D
1934.387	1.6	1982163	WORD	n/a	wordpools/wordpool.txt	VIOLIN	Instruments	2	0	15	[0, 0, 0]	n/a	0	1	0	n/a	n/a	0.0	0	0	0	catFR3	0	R1260D
1936.003	1.001	1983779	WORD_OFF	n/a	n/a	VIOLIN	n/a	2	0	15	[0, 0, 0]	n/a	0	1	0	n/a	n/a	0.0	0	0	0	catFR3	0	R1260D
1937.004	1.6	1984780	WORD	n/a	wordpools/wordpool.txt	MICROWAVE	Electronics	3	0	15	[0, 0, 0]	n/a	0	1	0	n/a	n/a	0.0	0	0	0	catFR3	0	R1260D
1938.62	0.918	1986396	WORD_OFF	n/a	n/a	MICROWAVE	n/a	3	0	15	[0, 0, 0]	n/a	0	1	0	n/a	n/a	0.0	0	0	0	catFR3	0	R1260D
1939.538	1.6	1987314	WORD	n/a	wordpools/wordpool.txt	CALCULATOR	Electronics	4	0	15	[0, 0, 0]	n/a	0	1	0	n/a	n/a	0.0	0	0	0	catFR3	0	R1260D
1941.154	0.834	1988930	WORD_OFF	n/a	n/a	CALCULATOR	n/a	4	0	15	[0, 0, 0]	n/a	0	1	0	n/a	n/a	0.0	0	0	0	catFR3	0	R1260D
1941.988	1.6	1989764	WORD	n/a	wordpools/wordpool.txt	DUCK	Birds	5	0	15	[0, 0, 0]	n/a	0	1	0	n/a	n/a	0.0	0	0	0	catFR3	0	R1260D
1943.604	0.784	1991380	WORD_OFF	n/a	n/a	DUCK	n/a	5	0	15	[0, 0, 0]	n/a	0	1	0	n/a	n/a	0.0	0	0	0	catFR3	0	R1260D
1944.388	1.6	1992164	WORD	n/a	wordpools/wordpool.txt	PIGEON	Birds	6	0	15	[0, 0, 0]	n/a	0	1	0	n/a	n/a	0.0	0	0	0	catFR3	0	R1260D
1944.637	0.5	1992413	STIM_ON	n/a	n/a	PIGEON	n/a	6	0	15	[0, 0, 0]	n/a	1	1	500	LLTG22	LLTG23	1250.0	200	100	300	catFR3	0	R1260D
1945.137	0.868	1992913	STIM_OFF	n/a	n/a	n/a	n/a	6	0	15	[0, 0, 0]	n/a	0	1	500	LLTG22	LLTG23	1250.0	200	100	300	catFR3	0	R1260D
1946.005	0.866	1993781	WORD_OFF	n/a	n/a	PIGEON	n/a	6	0	15	[0, 0, 0]	n/a	0	1	0	n/a	n/a	0.0	0	0	0	catFR3	0	R1260D
1946.871	1.6	1994647	WORD	n/a	wordpools/wordpool.txt	TUBA	Instruments	7	0	15	[0, 0, 0]	n/a	0	1	0	n/a	n/a	0.0	0	0	0	catFR3	0	R1260D
1947.122	0.5	1994898	STIM_ON	n/a	n/a	TUBA	n/a	7	0	15	[0, 0, 0]	n/a	1	1	500	LLTG22	LLTG23	1250.0	200	100	300	catFR3	0	R1260D
1947.622	0.867	1995398	STIM_OFF	n/a	n/a	n/a	n/a	7	0	15	[0, 0, 0]	n/a	0	1	500	LLTG22	LLTG23	1250.0	200	100	300	catFR3	0	R1260D
1948.489	0.933	1996265	WORD_OFF	n/a	n/a	TUBA	n/a	7	0	15	[0, 0, 0]	n/a	0	1	0	n/a	n/a	0.0	0	0	0	catFR3	0	R1260D
1949.422	1.6	1997198	WORD	n/a	wordpools/wordpool.txt	FLUTE	Instruments	8	0	15	[0, 0, 0]	n/a	0	1	0	n/a	n/a	0.0	0	0	0	catFR3	0	R1260D
1949.671	0.5	1997447	STIM_ON	n/a	n/a	FLUTE	n/a	8	0	15	[0, 0, 0]	n/a	1	1	500	LLTG22	LLTG23	1250.0	200	100	300	catFR3	0	R1260D
1950.171	0.868	1997946	STIM_OFF	n/a	n/a	n/a	n/a	8	0	15	[0, 0, 0]	n/a	0	1	500	LLTG22	LLTG23	1250.0	200	100	300	catFR3	0	R1260D
1951.039	0.967	1998814	WORD_OFF	n/a	n/a	FLUTE	n/a	8	0	15	[0, 0, 0]	n/a	0	1	0	n/a	n/a	0.0	0	0	0	catFR3	0	R1260D
1952.006	1.6	1999781	WORD	n/a	wordpools/wordpool.txt	PHONE	Electronics	9	0	15	[0, 0, 0]	n/a	0	1	0	n/a	n/a	0.0	0	0	0	catFR3	0	R1260D
1952.252	0.5	2000027	STIM_ON	n/a	n/a	PHONE	n/a	9	0	15	[0, 0, 0]	n/a	1	1	500	LLTG22	LLTG23	1250.0	200	100	300	catFR3	0	R1260D
1952.752	0.87	2000527	STIM_OFF	n/a	n/a	n/a	n/a	9	0	15	[0, 0, 0]	n/a	0	1	500	LLTG22	LLTG23	1250.0	200	100	300	catFR3	0	R1260D
1953.622	0.967	2001397	WORD_OFF	n/a	n/a	PHONE	n/a	9	0	15	[0, 0, 0]	n/a	0	1	0	n/a	n/a	0.0	0	0	0	catFR3	0	R1260D
1954.589	1.6	2002364	WORD	n/a	wordpools/wordpool.txt	TABLET	Electronics	10	0	15	[0, 0, 0]	n/a	0	1	0	n/a	n/a	0.0	0	0	0	catFR3	0	R1260D
1954.841	0.5	2002616	STIM_ON	n/a	n/a	TABLET	n/a	10	0	15	[0, 0, 0]	n/a	1	1	500	LLTG22	LLTG23	1250.0	200	100	300	catFR3	0	R1260D
1955.341	0.866	2003116	STIM_OFF	n/a	n/a	n/a	n/a	10	0	15	[0, 0, 0]	n/a	0	1	500	LLTG22	LLTG23	1250.0	200	100	300	catFR3	0	R1260D
1956.207	0.967	2003982	WORD_OFF	n/a	n/a	TABLET	n/a	10	0	15	[0, 0, 0]	n/a	0	1	0	n/a	n/a	0.0	0	0	0	catFR3	0	R1260D
1957.174	1.6	2004949	WORD	n/a	wordpools/wordpool.txt	DOVE	Birds	11	0	15	[0, 0, 0]	n/a	0	1	0	n/a	n/a	0.0	0	0	0	catFR3	0	R1260D
1958.79	0.9	2006565	WORD_OFF	n/a	n/a	DOVE	n/a	11	0	15	[0, 0, 0]	n/a	0	1	0	n/a	n/a	0.0	0	0	0	catFR3	0	R1260D
1959.69	1.6	2007465	WORD	n/a	wordpools/wordpool.txt	FINCH	Birds	12	0	15	[0, 0, 0]	n/a	0	1	0	n/a	n/a	0.0	0	0	0	catFR3	0	R1260D
1961.308	0.0	2009083	WORD_OFF	n/a	n/a	FINCH	n/a	12	0	15	[0, 0, 0]	n/a	0	1	0	n/a	n/a	0.0	0	0	0	catFR3	0	R1260D
1961.308	0.06	2009083	ENCODING_END	n/a	n/a	n/a	n/a	-999	0	15	[0, 0, 0]	n/a	0	1	0	n/a	n/a	0.0	0	0	0	catFR3	0	R1260D
1961.368	0.0	2009143	DISTRACT_START	n/a	n/a	n/a	n/a	-999	0	15	[0, 0, 0]	n/a	0	1	0	n/a	n/a	0.0	0	0	0	catFR3	0	R1260D
1961.368	0.023	2009143	START	n/a	n/a	n/a	n/a	-999	0	15	[-999, -999, -999]	n/a	0	1	0	n/a	n/a	0.0	0	0	0	catFR3	0	R1260D
1961.391	7.535	2009166	PROB	7.502	n/a	n/a	n/a	-999	0	15	[3, 1, 8]	12	0	1	0	n/a	n/a	0.0	0	0	0	catFR3	0	R1260D
1968.926	4.151	2016700	PROB	4.127	n/a	n/a	n/a	-999	0	15	[1, 4, 7]	1	0	1	0	n/a	n/a	0.0	0	0	0	catFR3	0	R1260D
1973.077	6.401	2020851	PROB	6.368	n/a	n/a	n/a	-999	0	15	[2, 7, 2]	11	0	1	0	n/a	n/a	0.0	0	0	0	catFR3	0	R1260D
1979.478	9.696	2027252	PROB	9.696	n/a	n/a	n/a	-999	0	15	[5, 8, 9]	22	0	1	0	n/a	n/a	0.0	0	0	0	catFR3	0	R1260D
1989.174	0.006	2036947	STOP	n/a	n/a	n/a	n/a	-999	0	15	[-999, -999, -999]	n/a	0	1	0	n/a	n/a	0.0	0	0	0	catFR3	0	R1260D
1989.18	0.699	2036953	DISTRACT_END	n/a	n/a	n/a	n/a	-999	0	15	[0, 0, 0]	n/a	0	1	0	n/a	n/a	0.0	0	0	0	catFR3	0	R1260D
1989.879	0.5	2037652	RETRIEVAL_ORIENT	n/a	n/a	n/a	n/a	-999	0	15	[0, 0, 0]	n/a	0	1	0	n/a	n/a	0.0	0	0	0	catFR3	0	R1260D
1990.398	2.468	2038171	REC_START	n/a	n/a	n/a	n/a	-999	0	15	[0, 0, 0]	n/a	0	1	0	n/a	n/a	0.0	0	0	0	catFR3	0	R1260D
1992.866	3.175	2040639	REC_WORD_VV	2.468	n/a	<>	n/a	-999	0	15	[0, 0, 0]	n/a	0	1	0	n/a	n/a	0.0	0	0	0	catFR3	0	R1260D
1996.041	7.037	2043814	REC_WORD_VV	5.643	n/a	<>	n/a	-999	0	15	[0, 0, 0]	n/a	0	1	0	n/a	n/a	0.0	0	0	0	catFR3	0	R1260D
2003.078	0.519	2050851	REC_WORD_VV	12.68	n/a	<>	n/a	-999	0	15	[0, 0, 0]	n/a	0	1	0	n/a	n/a	0.0	0	0	0	catFR3	0	R1260D
2003.597	4.442	2051370	REC_WORD	13.199	n/a	GOAT	n/a	-999	0	15	[0, 0, 0]	n/a	0	1	0	n/a	n/a	0.0	0	0	0	catFR3	0	R1260D
2008.039	3.797	2055811	REC_WORD_VV	17.641	n/a	<>	n/a	-999	0	15	[0, 0, 0]	n/a	0	1	0	n/a	n/a	0.0	0	0	0	catFR3	0	R1260D
2011.836	2.4	2059608	REC_WORD	21.438	n/a	FOX	n/a	-999	0	15	[0, 0, 0]	n/a	0	1	0	n/a	n/a	0.0	0	0	0	catFR3	0	R1260D
2014.236	6.174	2062008	REC_WORD_VV	23.838	n/a	<>	n/a	-999	0	15	[0, 0, 0]	n/a	0	1	0	n/a	n/a	0.0	0	0	0	catFR3	0	R1260D
2020.41	9.159	2068182	REC_END	n/a	n/a	n/a	n/a	-999	0	15	[0, 0, 0]	n/a	0	1	0	n/a	n/a	0.0	0	0	0	catFR3	0	R1260D
2029.569	0.5	2077340	TRIAL	n/a	n/a	n/a	n/a	-999	0	16	[0, 0, 0]	n/a	0	1	0	n/a	n/a	0.0	0	0	0	catFR3	0	R1260D
2030.069	10.0	2077840	COUNTDOWN_START	n/a	n/a	n/a	n/a	-999	0	16	[0, 0, 0]	n/a	0	1	0	n/a	n/a	0.0	0	0	0	catFR3	0	R1260D
2040.497	0.009	2088267	COUNTDOWN_END	n/a	n/a	n/a	n/a	-999	0	16	[0, 0, 0]	n/a	0	1	0	n/a	n/a	0.0	0	0	0	catFR3	0	R1260D
2040.506	1.6	2088276	ORIENT	n/a	n/a	n/a	n/a	-999	0	16	[0, 0, 0]	n/a	0	1	0	n/a	n/a	0.0	0	0	0	catFR3	0	R1260D
2042.123	1.867	2089893	ORIENT_OFF	n/a	n/a	n/a	n/a	-999	0	16	[0, 0, 0]	n/a	0	1	0	n/a	n/a	0.0	0	0	0	catFR3	0	R1260D
2043.99	1.6	2091760	WORD	n/a	wordpools/wordpool.txt	KNIFE	KitchenTools	1	0	16	[0, 0, 0]	n/a	0	1	0	n/a	n/a	0.0	0	0	0	catFR3	0	R1260D
2045.606	0.801	2093376	WORD_OFF	n/a	n/a	KNIFE	n/a	1	0	16	[0, 0, 0]	n/a	0	1	0	n/a	n/a	0.0	0	0	0	catFR3	0	R1260D
2046.407	1.6	2094177	WORD	n/a	wordpools/wordpool.txt	FORK	KitchenTools	2	0	16	[0, 0, 0]	n/a	0	1	0	n/a	n/a	0.0	0	0	0	catFR3	0	R1260D
2048.024	0.95	2095794	WORD_OFF	n/a	n/a	FORK	n/a	2	0	16	[0, 0, 0]	n/a	0	1	0	n/a	n/a	0.0	0	0	0	catFR3	0	R1260D
2048.974	1.6	2096744	WORD	n/a	wordpools/wordpool.txt	PEN	OfficeSupplies	3	0	16	[0, 0, 0]	n/a	0	1	0	n/a	n/a	0.0	0	0	0	catFR3	0	R1260D
2049.227	0.5	2096997	STIM_ON	n/a	n/a	PEN	n/a	3	0	16	[0, 0, 0]	n/a	1	1	500	LLTG22	LLTG23	1250.0	200	100	300	catFR3	0	R1260D
